File: degradation_testing/tensile_testing/PLA/PLA_IPA/PLA-IPA-1.csv
"1 _ 1",,
"Time","Force","Stroke"
"sec","N","mm"
"0","0.3266335","6.666667E-05"
"0.02","0.3973643","0.006033333"
"0.04","0.5912781","0.01576667"
"0.06","1.494884","0.02616667"
"0.08","3.576279","0.0365"
"0.1","6.137689","0.04673333"
"0.12","8.826256","0.05663333"
"0.14","11.57522","0.0663"
"0.16","14.21054","0.0764"
"0.18","16.72824","0.0864"
"0.2","19.21733","0.09656667"
"0.22","21.55463","0.1065333"
"0.24","23.65907","0.1168"
"0.26","25.50284","0.1269333"
"0.28","27.14316","0.1368333"
"0.3","28.5697","0.1465333"
"0.32","29.86511","0.1566667"
"0.34","31.36953","0.1663667"
"0.36","33.31025","0.1765333"
"0.38","35.6396","0.1866333"
"0.4","38.15651","0.1967333"
"0.42","40.38413","0.2069667"
"0.44","41.94577","0.2168"
"0.46","42.76673","0.2266667"
"0.48","42.93839","0.2365"
"0.5","42.77945","0.2463333"
"0.52","42.79773","0.2565333"
"0.54","43.34609","0.2667"
"0.56","44.50162","0.2768"
"0.58","46.06168","0.2868"
"0.6","47.85379","0.2967667"
"0.62","49.80008","0.3066333"
"0.64","51.68915","0.3163667"
"0.66","53.31834","0.3265333"
"0.68","54.61613","0.3365667"
"0.7","55.59285","0.3465667"
"0.72","56.27076","0.3566"
"0.74","56.90495","0.3668"
"0.76","57.79743","0.3769667"
"0.78","59.10158","0.3868"
"0.8","60.98032","0.3965333"
"0.82","63.4551","0.4066"
"0.84","65.72882","0.4162667"
"0.86","66.86608","0.4264"
"0.88","66.87562","0.4366"
"0.9","66.53865","0.4467667"
"0.92","66.46951","0.4568"
"0.94","66.59587","0.4667667"
"0.96","66.5156","0.4767"
"0.98","66.49653","0.4865"
"1","66.65388","0.4964"
"1.02","66.57442","0.5065333"
"1.04","66.38289","0.5167333"
"1.06","66.38289","0.5267333"
"1.08","66.28513","0.5367333"
"1.1","65.95453","0.5468"
"1.12","65.84326","0.5566667"
"1.14","66.17546","0.5664333"
"1.16","66.41626","0.5764667"
"1.18","66.35189","0.5865"
"1.2","66.55375","0.5966"
"1.22","67.14662","0.6066334"
"1.24","67.78001","0.6168"
"1.26","68.46984","0.6268667"
"1.28","69.18748","0.6367334"
"1.3","69.94963","0.6464334"
"1.32","70.58064","0.6565"
"1.34","71.16476","0.6662667"
"1.36","72.14069","0.6764333"
"1.38","73.76671","0.6867"
"1.4","75.78532","0.6968"
"1.42","77.79042","0.7069333"
"1.44","79.7526","0.7168334"
"1.46","81.94605","0.7266"
"1.48","84.4717","0.7365"
"1.5","87.21352","0.7463667"
"1.52","89.90685","0.7565"
"1.54","92.55965","0.7667667"
"1.56","95.17113","0.7768334"
"1.58","97.74526","0.7867666"
"1.6","100.2932","0.7968667"
"1.62","102.8132","0.8068"
"1.64","105.3166","0.8165"
"1.66","107.8041","0.8264667"
"1.68","110.2471","0.8364"
"1.7","112.6401","0.8464667"
"1.72","115.0298","0.8566"
"1.74","117.437","0.8668333"
"1.76","119.9389","0.8769"
"1.78","122.4605","0.8868"
"1.8","124.9433","0.8966"
"1.82","127.3553","0.9065667"
"1.84","129.6965","0.9163333"
"1.86","131.9901","0.9265"
"1.88","134.2845","0.9365667"
"1.9","136.6345","0.9466667"
"1.92","139.0028","0.9568"
"1.94","141.3703","0.9667667"
"1.96","143.7322","0.9766"
"1.98","145.9177","0.9865333"
"2","147.895","0.9963667"
"2.02","149.9256","1.006467"
"2.04","152.0411","1.0167"
"2.06","154.2068","1.0268"
"2.08","156.424","1.036733"
"2.1","158.6167","1.046867"
"2.12","160.7561","1.056667"
"2.14","162.8605","1.066433"
"2.16","164.8823","1.0765"
"2.18","166.9335","1.086433"
"2.2","169.0785","1.096533"
"2.22","171.2529","1.106667"
"2.24","173.4209","1.116833"
"2.26","175.5365","1.126933"
"2.28","177.5503","1.136833"
"2.3","179.5006","1.146567"
"2.32","181.3976","1.1566"
"2.34","183.2724","1.1663"
"2.36","185.1495","1.176467"
"2.38","187.0124","1.1866"
"2.4","188.9372","1.196733"
"2.42","190.8859","1.2068"
"2.44","192.8234","1.216767"
"2.46","194.7848","1.2266"
"2.48","196.7049","1.2365"
"2.5","198.5439","1.246367"
"2.52","200.3407","1.256467"
"2.54","202.1384","1.266633"
"2.56","203.944","1.276767"
"2.58","205.8013","1.286667"
"2.6","207.6689","1.296767"
"2.62","209.5016","1.3067"
"2.64","211.2714","1.316467"
"2.66","212.9928","1.326533"
"2.68","214.6474","1.336533"
"2.7","216.2782","1.346633"
"2.72","217.9154","1.3567"
"2.74","219.5756","1.366833"
"2.76","221.2151","1.3769"
"2.78","222.8236","1.386767"
"2.8","224.4027","1.3966"
"2.82","225.9231","1.4065"
"2.84","227.4259","1.416333"
"2.86","228.9057","1.426533"
"2.88","230.4069","1.4366"
"2.9","231.9757","1.446733"
"2.92","233.4992","1.4569"
"2.94","235.0005","1.466767"
"2.96","236.4945","1.4766"
"2.98","237.8368","1.486467"
"3","237.8949","1.496367"
"3.02","236.21","1.5064"
"3.04","236.33","1.5167"
"3.06","237.666","1.526767"
"3.08","239.0607","1.5367"
"3.1","240.4253","1.5468"
"3.12","241.7469","1.5567"
"3.14","243.0693","1.566433"
"3.16","244.3067","1.576467"
"3.18","245.4662","1.586467"
"3.2","246.6178","1.596567"
"3.22","247.8043","1.606633"
"3.24","249.0282","1.616767"
"3.26","250.2362","1.6269"
"3.28","251.4076","1.636733"
"3.3","252.5624","1.646533"
"3.32","253.6281","1.656633"
"3.34","254.6779","1.6664"
"3.36","255.7627","1.6764"
"3.38","256.8181","1.686667"
"3.4","257.9061","1.696733"
"3.42","259.0211","1.7069"
"3.44","260.0924","1.716767"
"3.46","261.1589","1.7266"
"3.48","262.173","1.736533"
"3.5","263.1521","1.7464"
"3.52","264.0994","1.756533"
"3.54","265.0221","1.7667"
"3.56","265.9186","1.776833"
"3.58","266.8389","1.786733"
"3.6","267.7488","1.7968"
"3.62","268.623","1.806667"
"3.64","269.4734","1.8164"
"3.66","270.2737","1.826433"
"3.68","271.0374","1.836433"
"3.7","271.8345","1.846467"
"3.72","272.6491","1.8566"
"3.74","273.5376","1.866867"
"3.76","274.4405","1.876967"
"3.78","275.3154","1.8868"
"3.8","276.1483","1.896567"
"3.82","276.9073","1.9065"
"3.84","277.6384","1.916267"
"3.86","278.3942","1.926433"
"3.88","279.1739","1.936633"
"3.9","280.0393","1.946767"
"3.92","280.8929","1.956967"
"3.94","281.6955","1.966833"
"3.96","282.4799","1.976733"
"3.98","283.1825","1.986567"
"4","283.8286","1.9964"
"4.02","284.4644","2.006467"
"4.04","285.1089","2.0167"
"4.06","285.7892","2.026767"
"4.08","286.5259","2.036767"
"4.1","287.257","2.0468"
"4.12","287.985","2.056667"
"4.14","288.6717","2.066433"
"4.16","289.3336","2.076467"
"4.18","289.975","2.086433"
"4.2","290.6394","2.0966"
"4.22","291.3237","2.1066"
"4.24","292.0532","2.116733"
"4.26","292.7574","2.1268"
"4.28","293.4615","2.136767"
"4.3","294.1513","2.1465"
"4.32","294.7927","2.1566"
"4.34","295.3768","2.166333"
"4.36","296.015","2.1764"
"4.38","296.6436","2.186667"
"4.4","297.3127","2.196767"
"4.42","298.0073","2.206967"
"4.44","298.6519","2.2168"
"4.46","299.3027","2.226667"
"4.48","299.9052","2.236567"
"4.5","300.4448","2.2464"
"4.52","301.013","2.256533"
"4.54","301.5661","2.266733"
"4.56","302.1741","2.276767"
"4.58","302.8297","2.286667"
"4.6","303.448","2.296767"
"4.62","304.0536","2.3067"
"4.64","304.6576","2.316433"
"4.66","305.2203","2.3265"
"4.68","305.7368","2.336467"
"4.7","306.2876","2.346567"
"4.72","306.863","2.356633"
"4.74","307.4916","2.366767"
"4.76","308.1028","2.376867"
"4.78","308.6201","2.386767"
"4.8","309.0906","2.396567"
"4.82","309.5357","2.4066"
"4.84","309.964","2.416367"
"4.86","310.4035","2.426467"
"4.88","310.8358","2.436567"
"4.9","311.3326","2.446733"
"4.92","311.8229","2.456833"
"4.94","312.2934","2.4668"
"4.96","312.7821","2.476633"
"4.98","313.2391","2.4865"
"5","313.615","2.496333"
"5.02","313.9774","2.506433"
"5.04","314.3517","2.516767"
"5.06","314.788","2.5268"
"5.08","315.2633","2.5368"
"5.1","315.6916","2.546733"
"5.12","316.1152","2.556667"
"5.14","316.5229","2.566433"
"5.16","316.8932","2.5765"
"5.18","317.2874","2.586467"
"5.2","317.6626","2.596633"
"5.22","318.0345","2.606667"
"5.24","318.4422","2.616767"
"5.26","318.8324","2.626967"
"5.28","319.2091","2.6368"
"5.3","319.5659","2.646567"
"5.32","319.8354","2.656567"
"5.34","320.0746","2.6664"
"5.36","320.3638","2.676367"
"5.38","320.6984","2.686567"
"5.4","321.0529","2.696767"
"5.42","321.4391","2.706867"
"5.44","321.7888","2.716733"
"5.46","322.1273","2.726633"
"5.48","322.4103","2.736533"
"5.5","322.6288","2.746367"
"5.52","322.8672","2.7564"
"5.54","323.0794","2.766667"
"5.56","323.2797","2.7768"
"5.58","323.5102","2.786667"
"5.6","323.7438","2.7968"
"5.62","323.9337","2.806733"
"5.64","324.0911","2.816367"
"5.66","324.1722","2.826467"
"5.68","324.1642","2.836533"
"5.7","324.2429","2.8466"
"5.72","324.3589","2.856667"
"5.74","324.5529","2.866833"
"5.76","324.7269","2.876933"
"5.78","324.8588","2.886767"
"5.8","324.9629","2.896533"
"5.82","325.0138","2.906533"
"5.84","325.0392","2.916267"
"5.86","325.0996","2.926467"
"5.88","325.1608","2.936633"
"5.9","325.3102","2.946733"
"5.92","325.431","2.956867"
"5.94","325.4787","2.9668"
"5.96","325.563","2.976633"
"5.98","325.5653","2.9865"
"6","325.4183","2.996333"
"6.02","325.2157","3.0064"
"6.04","325.0273","3.0167"
"6.06","324.8421","3.026767"
"6.08","324.7023","3.036767"
"6.1","324.4861","3.0468"
"6.12","324.1897","3.056733"
"6.14","323.8328","3.0665"
"6.16","323.445","3.076467"
"6.18","323.0349","3.086433"
"6.2","322.6511","3.096567"
"6.22","322.2966","3.106633"
"6.24","322.0113","3.116767"
"6.26","321.7038","3.126833"
"6.28","321.3731","3.136833"
"6.3","321.0243","3.1466"
"6.32","320.6198","3.156633"
"6.34","320.1739","3.166467"
"6.36","319.7448","3.176433"
"6.38","319.2774","3.186633"
"6.4","318.8094","3.196667"
"6.42","318.3548","3.2069"
"6.44","317.8628","3.216767"
"6.46","317.3431","3.226667"
"6.48","316.6938","3.236533"
"6.5","315.9881","3.2464"
"6.52","315.2967","3.256467"
"6.54","314.6005","3.266733"
"6.56","313.9027","3.276767"
"6.58","313.2494","3.2868"
"6.6","312.5922","3.296767"
"6.62","311.8881","3.3066"
"6.64","311.1116","3.316267"
"6.66","310.2843","3.326467"
"6.68","309.4268","3.3365"
"6.7","308.6169","3.346533"
"6.72","307.7857","3.356567"
"6.74","306.9258","3.366733"
"6.76","306.0118","3.376933"
"6.78","304.9994","3.386833"
"6.8","303.9161","3.396567"
"6.82","302.701","3.406667"
"6.84","301.307","3.416367"
"6.86","299.8074","3.426433"
"6.88","298.2553","3.436633"
"6.9","296.7453","3.446767"
"6.92","295.2186","3.456867"
"6.94","293.6586","3.466833"
"6.96","292.0683","3.4767"
"6.98","290.3787","3.486567"
"7","288.5358","3.496367"
"7.02","286.5648","3.5065"
"7.04","284.4302","3.516667"
"7.06","282.2232","3.526767"
"7.08","280.0322","3.536767"
"7.1","277.8212","3.546767"
"7.12","275.507","3.5566"
"7.14","273.0568","3.566367"
"7.16","270.412","3.576433"
"7.18","267.5724","3.5865"
"7.2","264.589","3.596633"
"7.22","261.5396","3.606667"
"7.24","258.3758","3.6168"
"7.26","254.9012","3.6269"
"7.28","251.1168","3.6368"
"7.3","247.0978","3.646467"
"7.32","242.7276","3.6566"
"7.34","237.9195","3.6664"
"7.36","232.8348","3.676467"
"7.38","227.5745","3.6867"
"7.4","222.1862","3.6969"
"7.42","216.616","3.707"
"7.44","210.5832","3.7168"
"7.46","204.0648","3.726567"
"7.48","196.8121","3.736467"
"7.5","188.276","3.746367"
"7.52","177.3564","3.756533"
"7.54","166.8286","3.7667"
"7.56","161.2663","3.7768"
"7.58","157.9738","3.786767"
"7.6","155.7875","3.796767"
"7.62","153.9437","3.806733"
"7.64","152.5203","3.816433"
"7.66","151.3592","3.826533"
"7.68","150.4612","3.8365"
"7.7","149.7769","3.8465"
"7.72","149.2635","3.8566"
"7.74","148.7939","3.8668"
"7.76","148.3234","3.8769"
"7.78","147.7853","3.886767"
"7.8","147.179","3.896567"
"7.82","146.5599","3.9066"
"7.84","146.1045","3.916333"
"7.86","145.6674","3.9264"
"7.88","145.2716","3.936533"
"7.9","144.879","3.946733"
"7.92","144.5739","3.956833"
"7.94","144.3259","3.966767"
"7.96","144.1121","3.976667"
"7.98","143.8046","3.986433"
"8","143.4525","3.9963"
"8.02","143.1084","4.006467"
"8.04","142.8461","4.0167"
"8.06","142.6442","4.026733"
"8.08","142.4972","4.0369"
"8.1","142.2906","4.046867"
"8.12","142.0339","4.0567"
"8.14","141.7247","4.066433"
"8.16","141.3989","4.0764"
"8.18","141.0842","4.086433"
"8.2","140.8084","4.096633"
"8.22","140.574","4.106667"
"8.24","140.3483","4.116767"
"8.26","140.0296","4.126966"
"8.28","139.5885","4.136767"
"8.3","139.0616","4.146567"
"8.32","138.588","4.1566"
"8.34","138.1421","4.1663"
"8.36","137.7805","4.176367"
"8.38","137.4324","4.1866"
"8.4","137.105","4.1967"
"8.42","136.7664","4.206867"
"8.44","136.4032","4.216767"
"8.46","135.9971","4.226667"
"8.48","135.5513","4.236533"
"8.5","135.0435","4.2464"
"8.52","134.5475","4.256533"
"8.54","134.0469","4.266634"
"8.56","133.5716","4.276733"
"8.58","133.0694","4.2868"
"8.6","132.5885","4.296767"
"8.62","132.0974","4.3067"
"8.64","131.6007","4.316467"
"8.66","131.0698","4.326567"
"8.68","130.4976","4.3366"
"8.7","129.8841","4.3466"
"8.72","129.2841","4.356667"
"8.74","128.665","4.366734"
"8.76","128.0379","4.3769"
"8.78","127.3894","4.386667"
"8.8","126.6742","4.396567"
"8.82","125.9112","4.406633"
"8.84","125.068","4.416333"
"8.86","124.1612","4.4264"
"8.88","123.1893","4.4366"
"8.9","122.1077","4.446834"
"8.92","120.9172","4.456933"
"8.94","119.6575","4.466834"
"8.96","118.3399","4.476533"
"8.98","116.9697","4.4864"
"9","115.6179","4.4963"
"9.02","114.3456","4.506467"
"9.04","113.1185","4.5167"
"9.06","111.9057","4.5267"
"9.08","110.6294","4.5368"
"9.1","109.3499","4.546733"
"9.12","107.9536","4.5567"
"9.14","106.5111","4.566433"
"9.16","105.1974","4.576433"
"9.18","103.9982","4.586467"
"9.2","102.7679","4.5966"
"9.22","101.4566","4.606667"
"9.24","100.1199","4.6168"
"9.26","98.74423","4.6269"
"9.28","97.45757","4.636734"
"9.3","96.2607","4.646533"
"9.32","95.11629","4.656667"
"9.34","93.92659","4.6664"
"9.36","92.59621","4.676434"
"9.38","91.31352","4.686666"
"9.4","90.10792","4.6968"
"9.42","88.90152","4.706867"
"9.44","87.6824","4.716767"
"9.46","86.41561","4.726634"
"9.48","85.24497","4.736533"
"9.5","84.02824","4.746334"
"9.52","82.71297","4.7564"
"9.54","81.40008","4.766767"
"9.56","80.18017","4.7768"
"9.58","79.0135","4.786733"
"9.6","77.87704","4.7968"
"9.62","76.82085","4.806633"
"9.64","75.88625","4.816333"
"9.66","74.9588","4.826433"
"9.68","73.94711","4.836534"
"9.7","72.93224","4.846567"
"9.72","71.93168","4.8566"
"9.74","70.88423","4.8669"
"9.76","69.75492","4.877"
"9.78","68.46428","4.886833"
"9.8","66.80568","4.8966"
"9.82","64.84588","4.9066"
"9.84","63.32795","4.916267"
"9.86","62.11758","4.926467"
"9.88","61.08284","4.9366"
"9.9","60.32149","4.9468"
"9.92","59.7326","4.956967"
"9.94","59.26688","4.9668"
"9.96","58.92038","4.976634"
"9.98","58.63746","4.986533"
"10","57.82127","4.9964"
"10.02","50.57812","5.006433"
"10.04","37.61848","5.016667"
"10.06","31.72954","5.026733"
"10.08","30.08127","5.036734"
"10.1","28.99885","5.0468"
"10.12","27.81709","5.0566"
"10.14","26.36035","5.0664"
"10.16","25.97968","5.076433"
"10.18","25.95981","5.0865"
"10.2","25.96219","5.096633"
"10.22","25.96378","5.1067"
"10.24","25.97014","5.116767"
"10.26","25.97968","5.126867"
"10.28","26.02418","5.136734"
"10.3","26.02816","5.1465"
"10.32","26.03928","5.156567"
"10.34","26.01782","5.1664"
"10.36","26.01782","5.1764"
"10.38","25.98683","5.1866"
"10.4","25.99239","5.1968"
"10.42","25.97968","5.2069"
"10.44","25.96776","5.216834"
"10.46","25.88431","5.2266"
"10.48","25.79927","5.2365"
"10.5","25.90179","5.246367"
"10.52","26.05915","5.2564"
"10.54","26.04167","5.266767"
"10.56","25.97332","5.2768"
"10.58","25.92564","5.2868"
"10.6","25.91292","5.296867"
"10.62","25.91451","5.306667"
"10.64","25.93756","5.316433"
"10.66","25.94153","5.3265"
"10.68","25.94868","5.336534"
"10.7","25.95027","5.3466"
"10.72","25.98365","5.356633"
"10.74","25.99955","5.3668"
"10.76","26.00352","5.376867"
"10.78","25.97491","5.3867"
"10.8","25.95027","5.396533"
"10.82","25.92882","5.406633"
"10.84","25.92166","5.416333"
"10.86","25.92643","5.426467"
"10.88","25.96776","5.436567"
"10.9","25.99239","5.446733"
"10.92","26.00034","5.456867"
"10.94","25.9908","5.466834"
"10.96","25.9614","5.476634"
"10.98","25.9304","5.486467"
"11","25.93517","5.496367"
"11.02","25.94153","5.5066"
"11.04","25.94153","5.516767"
"11.06","25.95663","5.5268"
"11.08","25.97014","5.5368"
"11.1","25.97094","5.5468"
"11.12","25.95743","5.556667"
"11.14","25.95504","5.5664"
"11.16","25.95266","5.576433"
"11.18","25.96776","5.5865"
"11.2","25.97968","5.5966"
"11.22","25.98683","5.606633"
"11.24","25.97332","5.616767"
"11.26","25.95345","5.6269"
"11.28","25.95901","5.636734"
"11.3","25.95743","5.646567"
"11.32","25.97252","5.656533"
"11.34","25.98127","5.666234"
"11.36","25.97809","5.676333"
"11.38","25.97332","5.6866"
"11.4","25.95345","5.696767"
"11.42","25.94153","5.7069"
"11.44","25.95504","5.7168"
"11.46","25.95266","5.726667"
"11.48","25.95981","5.736533"
"11.5","25.9757","5.7464"
"11.52","25.97332","5.756567"
"11.54","25.96378","5.7667"
"11.56","25.94789","5.776767"
"11.58","25.94391","5.786734"
"11.6","25.96219","5.796867"
"11.62","25.97332","5.806667"
"11.64","25.97729","5.816367"
"11.66","25.9614","5.826433"
"11.68","25.95901","5.836534"
"11.7","25.94551","5.846567"
"11.72","25.94391","5.8566"
"11.74","25.94868","5.866833"
"11.76","25.96219","5.876934"
"11.78","25.9614","5.886734"
"11.8","25.96458","5.896567"
"11.82","25.9614","5.906467"
"11.84","25.95981","5.916333"
"11.86","25.95107","5.926434"
"11.88","25.94868","5.936634"
"11.9","25.94868","5.9468"
"11.92","25.95901","5.956867"
"11.94","25.95901","5.966834"
"11.96","25.95345","5.976667"
"11.98","25.9463","5.986434"
"12","25.95027","5.996334"
"12.02","25.95504","6.006467"
"12.04","25.95345","6.0167"
"12.06","25.95743","6.026733"
"12.08","25.96219","6.036734"
"12.1","25.95027","6.046834"
"12.12","25.94153","6.0567"
"12.14","25.94153","6.066467"
"12.16","25.95266","6.0765"
"12.18","25.95266","6.086467"
"12.2","25.96378","6.096633"
"12.22","25.9614","6.1066"
"12.24","25.95266","6.1168"
"12.26","25.93994","6.126934"
"12.28","25.93756","6.1368"
"12.3","25.9463","6.146567"
"12.32","25.94868","6.1566"
"12.34","25.94789","6.1664"
"12.36","25.94551","6.1765"
"12.38","25.94551","6.186667"
"12.4","25.95743","6.196733"
"12.42","25.95027","6.206833"
"12.44","25.95027","6.216733"
"12.46","25.94233","6.226567"
"12.48","25.93756","6.236467"
"12.5","25.95266","6.2463"
"12.52","25.96776","6.256467"
"12.54","25.95504","6.266667"
"12.56","25.96776","6.2768"
"12.58","25.9757","6.2867"
"12.6","25.97252","6.296767"
"12.62","25.95266","6.306633"
"12.64","25.96378","6.316433"
"12.66","25.97094","6.326467"
"12.68","25.9614","6.336433"
"12.7","25.94868","6.346533"
"12.72","25.94868","6.3567"
"12.74","25.95027","6.366833"
"12.76","25.93994","6.376934"
"12.78","25.94391","6.386767"
"12.8","25.93756","6.396634"
"12.82","25.93517","6.406533"
"12.84","25.9463","6.4163"
"12.86","25.94233","6.4265"
"12.88","25.94789","6.436567"
"12.9","25.95901","6.446767"
"12.92","25.95345","6.4569"
"12.94","25.94233","6.466767"
"12.96","25.94868","6.4766"
"12.98","25.95107","6.4865"
"13","25.95266","6.4964"
"13.02","25.95027","6.5065"
"13.04","25.94868","6.516733"
"13.06","25.95504","6.526767"
"13.08","25.95027","6.5367"
"13.1","25.9463","6.5468"
"13.12","25.94391","6.5566"
"13.14","25.93915","6.5664"
"13.16","25.95027","6.5765"
"13.18","25.95901","6.5865"
"13.2","25.93756","6.5966"
"13.22","25.94233","6.606733"
"13.24","25.9304","6.616833"
"13.26","25.92802","6.626867"
"13.28","25.95027","6.6367"
"13.3","25.95743","6.646567"
"13.32","25.9463","6.6566"
"13.34","25.96219","6.666333"
"13.36","25.95107","6.676434"
"13.38","25.94868","6.686667"
"13.4","25.95743","6.696834"
"13.42","25.96458","6.706933"
"13.44","25.95107","6.716867"
"13.46","25.93756","6.726634"
"13.48","25.93279","6.7365"
"13.5","25.93279","6.746334"
"13.52","25.94868","6.7565"
"13.54","25.93994","6.766734"
"13.56","25.93994","6.7768"
"13.58","25.94391","6.7868"
"13.6","25.9312","6.796834"
"13.62","25.9304","6.806633"
"13.64","25.93756","6.816433"
"13.66","25.93915","6.8265"
"13.68","25.9304","6.8364"
"13.7","25.9304","6.8465"
"13.72","25.95027","6.856467"
"13.74","25.95027","6.8668"
"13.76","25.94233","6.8769"
"13.78","25.94233","6.8867"
"13.8","25.94153","6.8966"
"13.82","25.93517","6.9065"
"13.84","25.93915","6.9163"
"13.86","25.94391","6.926467"
"13.88","25.95743","6.936667"
"13.9","25.95504","6.946834"
"13.92","25.94391","6.956867"
"13.94","25.93676","6.966767"
"13.96","25.94233","6.976667"
"13.98","25.94153","6.9865"
"14","25.95107","6.996334"
"14.02","25.95743","7.0065"
"14.04","25.93994","7.016767"
"14.06","25.9312","7.0268"
"14.08","25.93994","7.036833"
"14.1","25.94153","7.0468"
"14.12","25.94789","7.056633"
"14.14","25.94233","7.066433"
"14.16","25.92405","7.076433"
"14.18","25.93676","7.086433"
"14.2","25.95504","7.096533"
"14.22","25.94789","7.1066"
"14.24","25.94789","7.116767"
"14.26","25.94789","7.126967"
"14.28","25.94551","7.1368"
"14.3","25.94233","7.146567"
"14.32","25.94153","7.156567"
"14.34","25.94789","7.166333"
"14.36","25.9463","7.1764"
"14.38","25.9463","7.1866"
"14.4","25.9614","7.196767"
"14.42","25.94868","7.206933"
"14.44","25.93279","7.216867"
"14.46","25.94233","7.226634"
"14.48","25.95901","7.2365"
"14.5","25.95981","7.246367"
"14.52","25.95663","7.256534"
"14.54","25.94391","7.2667"
"14.56","25.94233","7.276767"
"14.58","25.93517","7.286734"
"14.6","25.95266","7.296767"
"14.62","25.94233","7.306633"
"14.64","25.94153","7.316433"
"14.66","25.95743","7.3265"
"14.68","25.95663","7.3365"
"14.7","25.95663","7.3466"
"14.72","25.95981","7.356633"
"14.74","25.95107","7.366867"
"14.76","25.9312","7.376967"
"14.78","25.93438","7.3868"
"14.8","25.93915","7.3965"
"14.82","25.94233","7.406567"
"14.84","25.94551","7.416267"
"14.86","25.94233","7.426467"
"14.88","25.95027","7.436634"
"14.9","25.95663","7.446733"
"14.92","25.94551","7.456867"
"14.94","25.93994","7.466867"
"14.96","25.93756","7.4766"
"14.98","25.94233","7.486367"
"15","25.93517","7.496233"
"15.02","25.93517","7.506433"
"15.04","25.9312","7.516667"
"15.06","25.93517","7.526733"
"15.08","25.9312","7.536767"
"15.1","25.92882","7.5468"
"15.12","25.93756","7.556667"
"15.14","25.9463","7.566433"
"15.16","25.9463","7.576467"
"15.18","25.93279","7.586534"
"15.2","25.93279","7.596633"
"15.22","25.93676","7.606633"
"15.24","25.93438","7.616767"
"15.26","25.93517","7.6269"
"15.28","25.92882","7.636734"
"15.3","25.94153","7.646567"
"15.32","25.95345","7.656633"
"15.34","25.95266","7.6664"
"15.36","25.94868","7.676434"
"15.38","25.93756","7.686667"
"15.4","25.95107","7.696733"
"15.42","25.95981","7.706833"
"15.44","25.95266","7.7168"
"15.46","25.94391","7.726634"
"15.48","25.95345","7.736467"
"15.5","25.9614","7.7463"
"15.52","25.97014","7.756433"
"15.54","25.96776","7.7667"
"15.56","25.9614","7.776867"
"15.58","25.95504","7.7868"
"15.6","25.95663","7.796867"
"15.62","25.95504","7.806667"
"15.64","25.9463","7.8164"
"15.66","25.93756","7.8265"
"15.68","25.93994","7.836433"
"15.7","25.9463","7.8466"
"15.72","25.94551","7.856667"
"15.74","25.93756","7.8669"
"15.76","25.94789","7.877"
"15.78","25.95345","7.886833"
"15.8","25.9463","7.8966"
"15.82","25.95743","7.906533"
"15.84","25.95743","7.9162"
"15.86","25.93915","7.9264"
"15.88","25.9463","7.9366"
"15.9","25.9463","7.946767"
"15.92","25.9304","7.956867"
"15.94","25.9304","7.9668"
"15.96","25.93915","7.9767"
"15.98","25.95743","7.9865"
"16","25.94789","7.996334"
"16.02","25.93438","8.006534"
"16.04","25.94153","8.016633"
"16.06","25.94868","8.026633"
"16.08","25.9463","8.036734"
"16.1","25.93915","8.046833"
"16.12","25.93517","8.056633"
"16.14","25.93279","8.066433"
"16.16","25.93438","8.076467"
"16.18","25.94233","8.086467"
"16.2","25.93994","8.096633"
"16.22","25.93994","8.106667"
"16.24","25.94551","8.1168"
"16.26","25.93915","8.126866"
"16.28","25.94233","8.136766"
"16.3","25.93438","8.146566"
"16.32","25.93279","8.156567"
"16.34","25.93915","8.166333"
"16.36","25.93994","8.1764"
"16.38","25.9463","8.186666"
"16.4","25.93438","8.1968"
"16.42","25.9312","8.206966"
"16.44","25.94233","8.216833"
"16.46","25.94391","8.226666"
"16.48","25.93994","8.236533"
"16.5","25.95027","8.246333"
"16.52","25.95743","8.256467"
"16.54","25.95107","8.266733"
"16.56","25.95504","8.276733"
"16.58","25.95504","8.2868"
"16.6","25.95266","8.2968"
"16.62","25.95663","8.306666"
"16.64","25.95345","8.316401"
"16.66","25.93756","8.3265"
"16.68","25.93279","8.336433"
"16.7","25.94391","8.346534"
"16.72","25.95663","8.356566"
"16.74","25.94789","8.366767"
"16.76","25.93676","8.376933"
"16.78","25.92882","8.386766"
"16.8","25.92643","8.396566"
"16.82","25.92007","8.406633"
"16.84","25.92882","8.416333"
"16.86","25.94153","8.426534"
"16.88","25.95027","8.436666"
"16.9","25.94153","8.4468"
"16.92","25.94233","8.456867"
"16.94","25.95107","8.466833"
"16.96","25.95107","8.4766"
"16.98","25.95743","8.4865"
"17","25.95266","8.496367"
"17.02","25.95027","8.5065"
"17.04","25.94789","8.516733"
"17.06","25.94868","8.5267"
"17.08","25.94153","8.536867"
"17.1","25.95504","8.5468"
"17.12","25.93994","8.556601"
"17.14","25.95663","8.566367"
"17.16","25.94868","8.5764"
"17.18","25.95107","8.5864"
"17.2","25.93517","8.596534"
"17.22","25.94153","8.6066"
"17.24","25.93994","8.616867"
"17.26","25.93994","8.626866"
"17.28","25.94789","8.6368"
"17.3","25.92564","8.646566"
"17.32","25.92643","8.6566"
"17.34","25.94551","8.666333"
"17.36","25.94153","8.676367"
"17.38","25.93438","8.686566"
"17.4","25.93438","8.696733"
"17.42","25.94391","8.706933"
"17.44","25.93915","8.7168"
"17.46","25.93756","8.726666"
"17.48","25.93438","8.7365"
"17.5","25.9304","8.746333"
"17.52","25.9312","8.756467"
"17.54","25.93915","8.7667"
"17.56","25.93915","8.776733"
"17.58","25.9312","8.7868"
"17.6","25.94551","8.7968"
"17.62","25.93756","8.806666"
"17.64","25.94153","8.816466"
"17.66","25.92802","8.8265"
"17.68","25.93994","8.8365"
"17.7","25.93994","8.846567"
"17.72","25.92405","8.856633"
"17.74","25.92882","8.866834"
"17.76","25.94391","8.876966"
"17.78","25.92643","8.886766"
"17.8","25.92802","8.896566"
"17.82","25.92802","8.9066"
"17.84","25.93994","8.916233"
"17.86","25.92802","8.926434"
"17.88","25.93676","8.9366"
"17.9","25.93915","8.9468"
"17.92","25.94233","8.956867"
"17.94","25.95107","8.966766"
"17.96","25.93756","8.976633"
"17.98","25.93756","8.9865"
"18","25.94153","8.996333"
"18.02","25.93676","9.006467"
"18.04","25.93994","9.016666"
"18.06","25.95901","9.026733"
"18.08","25.95345","9.036867"
"18.1","25.95107","9.0469"
"18.12","25.94391","9.056733"
"18.14","25.9463","9.066533"
"18.16","25.95266","9.076533"
"18.18","25.94551","9.086433"
"18.2","25.93994","9.096601"
"18.22","25.9312","9.106566"
"18.24","25.9312","9.114"
"18.25","25.93438","9.114634"