File: degradation_testing/tensile_testing/PLA/PLA_IPA/PLA-IPA-4.csv
"1 _ 1",,
"Time","Force","Stroke"
"sec","N","mm"
"0","0.4315376","0.0001"
"0.01","0.4426638","0.001833333"
"0.02","0.4418691","0.0061"
"0.03","0.4490217","0.01103333"
"0.04","0.5197525","0.016"
"0.05","0.7271767","0.0211"
"0.06","1.129309","0.02633333"
"0.07","1.718998","0.0314"
"0.08","2.423922","0.03643334"
"0.09","3.166199","0.0414"
"0.1","3.886223","0.04626667"
"0.11","4.566511","0.05136667"
"0.12","5.224546","0.05643333"
"0.13","5.891323","0.06133333"
"0.14","6.597042","0.06636667"
"0.15","7.35124","0.0714"
"0.16","8.126895","0.07646666"
"0.17","8.880298","0.08156667"
"0.18","9.580453","0.08653334"
"0.19","10.2218","0.09163333"
"0.2","10.82818","0.09676667"
"0.21","11.44012","0.1018"
"0.22","12.091","0.1069"
"0.23","12.78003","0.1119333"
"0.24","13.47224","0.1168"
"0.25","14.13743","0.1217667"
"0.26","14.77321","0.1265667"
"0.27","15.39389","0.1314667"
"0.28","16.00981","0.1365667"
"0.29","16.6289","0.1414"
"0.3","17.24482","0.1462667"
"0.31","17.85199","0.1514"
"0.32","18.44883","0.1564333"
"0.33","19.0417","0.1615667"
"0.34","19.64331","0.1666333"
"0.35","20.25684","0.1716"
"0.36","20.87275","0.1767333"
"0.37","21.4831","0.1818"
"0.38","22.08074","0.1868"
"0.39","22.66963","0.1918667"
"0.4","23.2625","0.1968667"
"0.41","23.8657","0.2017667"
"0.42","24.47446","0.2066667"
"0.43","25.08163","0.2114667"
"0.44","25.68086","0.2164"
"0.45","26.26737","0.2214667"
"0.46","26.85388","0.2263333"
"0.47","27.45549","0.2313667"
"0.48","28.08014","0.2364"
"0.49","28.71752","0.2414667"
"0.5","29.35886","0.2467"
"0.51","30.00101","0.2517333"
"0.52","30.64156","0.2567333"
"0.53","31.26939","0.2619"
"0.54","31.87656","0.2668"
"0.55","32.46546","0.2717667"
"0.56","33.0472","0.2768667"
"0.57","33.63371","0.2818"
"0.58","34.23214","0.2867333"
"0.59","34.84805","0.2916"
"0.6","35.47033","0.2964333"
"0.61","36.07194","0.3014333"
"0.62","36.6203","0.3064333"
"0.63","37.09316","0.3113667"
"0.64","37.49371","0.3164333"
"0.65","37.8259","0.3215"
"0.66","38.10008","0.3266333"
"0.67","38.32579","0.3317333"
"0.68","38.50381","0.3366667"
"0.69","38.6246","0.3416667"
"0.7","38.68898","0.3468"
"0.71","38.70646","0.3518"
"0.72","38.68977","0.3569333"
"0.73","38.66275","0.3619667"
"0.74","38.65163","0.3668667"
"0.75","38.67388","0.3717667"
"0.76","38.72951","0.3766"
"0.77","38.81137","0.3815333"
"0.78","38.91389","0.3866"
"0.79","39.04979","0.3915333"
"0.8","39.22939","0.3963333"
"0.81","39.4694","0.4013333"
"0.82","39.76981","0.4064"
"0.83","40.12426","0.4115667"
"0.84","40.52639","0.4166"
"0.85","40.97382","0.4215333"
"0.86","41.45304","0.4267"
"0.87","41.94896","0.4317667"
"0.88","42.4552","0.4368334"
"0.89","42.97416","0.4419"
"0.9","43.49788","0.4468"
"0.91","44.01366","0.4517"
"0.92","44.51434","0.4566333"
"0.93","44.99594","0.4614667"
"0.94","45.45768","0.4664"
"0.95","45.90352","0.4715"
"0.96","46.3295","0.4763667"
"0.97","46.73958","0.4813333"
"0.98","47.14091","0.4864333"
"0.99","47.54384","0.4915"
"1","47.94359","0.4966334"
"1.01","48.34254","0.5016667"
"1.02","48.75501","0.5067"
"1.03","49.1786","0.5118333"
"1.04","49.59106","0.5167667"
"1.05","49.9781","0.5217"
"1.06","50.34288","0.5267667"
"1.07","50.70607","0.5317"
"1.08","51.08913","0.5366667"
"1.09","51.51987","0.5415667"
"1.1","52.00704","0.5464"
"1.11","52.53871","0.5514666"
"1.12","53.09979","0.5565"
"1.13","53.68789","0.5613667"
"1.14","54.31016","0.5664333"
"1.15","54.97217","0.5714667"
"1.16","55.66994","0.5765"
"1.17","56.39474","0.5816333"
"1.18","57.14417","0.5866333"
"1.19","57.91823","0.5917"
"1.2","58.7066","0.5968333"
"1.21","59.49179","0.6018"
"1.22","60.26983","0.6068667"
"1.23","61.03595","0.6119"
"1.24","61.78777","0.6167667"
"1.25","62.52368","0.6217"
"1.26","63.23894","0.6265333"
"1.27","63.92638","0.6314334"
"1.28","64.57487","0.6365333"
"1.29","65.16377","0.6413"
"1.3","65.66843","0.6461667"
"1.31","66.06658","0.6513333"
"1.32","66.3654","0.6564"
"1.33","66.59666","0.6615667"
"1.34","66.78104","0.6666334"
"1.35","66.92012","0.6715333"
"1.36","67.01072","0.6767"
"1.37","67.06476","0.6818333"
"1.38","67.10291","0.6868333"
"1.39","67.13788","0.6919"
"1.4","67.16093","0.6968667"
"1.41","67.16966","0.7017667"
"1.42","67.16331","0.7067"
"1.43","67.14105","0.7114667"
"1.44","67.10211","0.7163666"
"1.45","67.0584","0.7214333"
"1.46","67.02502","0.7263"
"1.47","67.01628","0.7313333"
"1.48","67.04728","0.7364666"
"1.49","67.12516","0.7415333"
"1.5","67.23642","0.7466667"
"1.51","67.35722","0.7517"
"1.52","67.45497","0.7567"
"1.53","67.50345","0.7618334"
"1.54","67.49471","0.7668"
"1.55","67.43908","0.7718"
"1.56","67.36517","0.7768667"
"1.57","67.31908","0.7817667"
"1.58","67.34292","0.7867333"
"1.59","67.43908","0.7916667"
"1.6","67.56862","0.7964666"
"1.61","67.67829","0.8015"
"1.62","67.73869","0.8065"
"1.63","67.74505","0.8114"
"1.64","67.72916","0.8164"
"1.65","67.73313","0.8214"
"1.66","67.79433","0.8265333"
"1.67","67.92784","0.8316333"
"1.68","68.13526","0.8365667"
"1.69","68.40865","0.8416667"
"1.7","68.72813","0.8468"
"1.71","69.06509","0.8518333"
"1.72","69.40126","0.8568667"
"1.73","69.73505","0.8619334"
"1.74","70.06963","0.8668333"
"1.75","70.41296","0.8717667"
"1.76","70.76343","0.8765666"
"1.77","71.11311","0.8814667"
"1.78","71.44928","0.8865667"
"1.79","71.77591","0.8915333"
"1.8","72.10732","0.8964"
"1.81","72.46176","0.9014"
"1.82","72.83688","0.9064333"
"1.83","73.22073","0.9115334"
"1.84","73.60856","0.9166"
"1.85","73.99638","0.9215333"
"1.86","74.3699","0.9267333"
"1.87","74.71561","0.9318667"
"1.88","75.04145","0.9368667"
"1.89","75.36967","0.9419333"
"1.9","75.72412","0.9468334"
"1.91","76.12705","0.9517"
"1.92","76.588","0.9566666"
"1.93","77.10139","0.9615"
"1.94","77.65372","0.9664667"
"1.95","78.23785","0.9715"
"1.96","78.84661","0.9763667"
"1.97","79.46412","0.9814"
"1.98","80.06414","0.9864667"
"1.99","80.63952","0.9915333"
"2","81.19027","0.9967334"
"2.01","81.72115","1.001733"
"2.02","82.23296","1.006733"
"2.03","82.7376","1.0119"
"2.04","83.25656","1.016867"
"2.05","83.80572","1.021733"
"2.06","84.40495","1.0268"
"2.07","85.06219","1.031667"
"2.08","85.76314","1.036633"
"2.09","86.48316","1.041533"
"2.1","87.19603","1.046367"
"2.11","87.87791","1.051433"
"2.12","88.52243","1.056467"
"2.13","89.14709","1.0613"
"2.14","89.77731","1.0664"
"2.15","90.41786","1.071433"
"2.16","91.06398","1.076467"
"2.17","91.69897","1.081567"
"2.18","92.32362","1.086567"
"2.19","92.94987","1.0916"
"2.2","93.58724","1.096733"
"2.21","94.23177","1.101733"
"2.22","94.88106","1.106833"
"2.23","95.53671","1.1119"
"2.24","96.19792","1.116767"
"2.25","96.85516","1.121767"
"2.26","97.49413","1.1267"
"2.27","98.11322","1.131567"
"2.28","98.72437","1.136633"
"2.29","99.33313","1.141433"
"2.3","99.93951","1.146267"
"2.31","100.5411","1.151333"
"2.32","101.1387","1.156367"
"2.33","101.7245","1.1615"
"2.34","102.2911","1.1666"
"2.35","102.857","1.171567"
"2.36","103.4347","1.176667"
"2.37","104.0204","1.181767"
"2.38","104.5982","1.1867"
"2.39","105.1585","1.1918"
"2.4","105.7124","1.196767"
"2.41","106.264","1.201733"
"2.42","106.8139","1.2067"
"2.43","107.3519","1.2115"
"2.44","107.8741","1.216433"
"2.45","108.3867","1.221467"
"2.46","108.9072","1.226367"
"2.47","109.4413","1.231367"
"2.48","109.9865","1.236467"
"2.49","110.5348","1.2415"
"2.5","111.0832","1.246667"
"2.51","111.6316","1.251667"
"2.52","112.1847","1.256667"
"2.53","112.7426","1.261833"
"2.54","113.2957","1.2668"
"2.55","113.8457","1.2717"
"2.56","114.4012","1.276767"
"2.57","114.9567","1.2817"
"2.58","115.5067","1.2867"
"2.59","116.051","1.291633"
"2.6","116.5946","1.296467"
"2.61","117.1343","1.301433"
"2.62","117.658","1.306433"
"2.63","118.169","1.3113"
"2.64","118.6792","1.3164"
"2.65","119.1958","1.3215"
"2.66","119.7187","1.326567"
"2.67","120.256","1.3317"
"2.68","120.8059","1.336667"
"2.69","121.359","1.341733"
"2.7","121.9074","1.346833"
"2.71","122.4486","1.351833"
"2.72","122.9803","1.356867"
"2.73","123.504","1.361867"
"2.74","124.019","1.3667"
"2.75","124.5252","1.371633"
"2.76","125.0307","1.3765"
"2.77","125.5282","1.381467"
"2.78","126.0138","1.386567"
"2.79","126.4858","1.391567"
"2.8","126.9476","1.3964"
"2.81","127.4093","1.4014"
"2.82","127.871","1.4064"
"2.83","128.3272","1.411567"
"2.84","128.7619","1.416633"
"2.85","129.168","1.4216"
"2.86","129.5606","1.4268"
"2.87","129.9636","1.4319"
"2.88","130.3951","1.436933"
"2.89","130.856","1.441967"
"2.9","131.3329","1.446867"
"2.91","131.8042","1.451767"
"2.92","132.2643","1.456667"
"2.93","132.7133","1.461433"
"2.94","133.1615","1.4664"
"2.95","133.6098","1.471467"
"2.96","134.0532","1.476333"
"2.97","134.4903","1.481367"
"2.98","134.929","1.486467"
"2.99","135.3677","1.491467"
"3","135.8032","1.496633"
"3.01","136.2379","1.5017"
"3.02","136.6798","1.5067"
"3.03","137.1336","1.5119"
"3.04","137.5882","1.516833"
"3.05","138.0348","1.521767"
"3.06","138.4799","1.5268"
"3.07","138.9289","1.531733"
"3.08","139.3763","1.536733"
"3.09","139.8158","1.541633"
"3.1","140.2529","1.546433"
"3.11","140.6868","1.551533"
"3.12","141.1136","1.556533"
"3.13","141.5324","1.561367"
"3.14","141.9465","1.566467"
"3.15","142.3573","1.571467"
"3.16","142.7674","1.5765"
"3.17","143.1799","1.581633"
"3.18","143.5963","1.586633"
"3.19","144.0088","1.5917"
"3.2","144.4189","1.596767"
"3.21","144.8297","1.601767"
"3.22","145.2406","1.6069"
"3.23","145.6459","1.6119"
"3.24","146.0465","1.616733"
"3.25","146.4478","1.6217"
"3.26","146.8499","1.626567"
"3.27","147.2457","1.631467"
"3.28","147.628","1.6366"
"3.29","147.9999","1.641467"
"3.3","148.3671","1.646267"
"3.31","148.7358","1.651333"
"3.32","149.1062","1.6564"
"3.33","149.4742","1.661533"
"3.34","149.8429","1.6666"
"3.35","150.2132","1.6715"
"3.36","150.5907","1.676633"
"3.37","150.9825","1.681733"
"3.38","151.3791","1.686733"
"3.39","151.7741","1.691833"
"3.4","152.1659","1.6968"
"3.41","152.5545","1.7017"
"3.42","152.9463","1.706633"
"3.43","153.3373","1.711433"
"3.44","153.7188","1.7164"
"3.45","154.0836","1.7215"
"3.46","154.4341","1.726367"
"3.47","154.7813","1.731333"
"3.48","155.1294","1.7364"
"3.49","155.4791","1.7415"
"3.5","155.8296","1.746633"
"3.51","156.1904","1.751733"
"3.52","156.5591","1.756667"
"3.53","156.9359","1.7618"
"3.54","157.3181","1.7668"
"3.55","157.6956","1.7718"
"3.56","158.0548","1.776867"
"3.57","158.4045","1.7818"
"3.58","158.7661","1.7867"
"3.59","159.1261","1.7916"
"3.6","159.4543","1.796433"
"3.61","159.7667","1.801433"
"3.62","160.0949","1.8064"
"3.63","160.435","1.811267"
"3.64","160.7593","1.8163"
"3.65","161.0748","1.8214"
"3.66","161.4006","1.826533"
"3.67","161.7376","1.8317"
"3.68","162.0722","1.836667"
"3.69","162.4036","1.841733"
"3.7","162.7382","1.8468"
"3.71","163.0727","1.8518"
"3.72","163.4026","1.856833"
"3.73","163.73","1.861867"
"3.74","164.0574","1.866733"
"3.75","164.3856","1.871767"
"3.76","164.7162","1.8766"
"3.77","165.0453","1.881467"
"3.78","165.3584","1.886567"
"3.79","165.654","1.891533"
"3.8","165.9417","1.896333"
"3.81","166.2358","1.901267"
"3.82","166.5282","1.906333"
"3.83","166.8111","1.911467"
"3.84","167.0925","1.916567"
"3.85","167.3929","1.921567"
"3.86","167.7187","1.9267"
"3.87","168.0692","1.931767"
"3.88","168.434","1.936833"
"3.89","168.8019","1.941933"
"3.9","169.1596","1.946833"
"3.91","169.5021","1.951733"
"3.92","169.8327","1.956667"
"3.93","170.1482","1.9615"
"3.94","170.4407","1.9665"
"3.95","170.7157","1.971567"
"3.96","170.9851","1.976433"
"3.97","171.2505","1.9814"
"3.98","171.5159","1.9865"
"3.99","171.7901","1.991567"
"4","172.0794","1.9967"
"4.01","172.3758","2.001667"
"4.02","172.6747","2.0067"
"4.03","172.9846","2.011933"
"4.04","173.3033","2.016833"
"4.05","173.6196","2.021733"
"4.06","173.9232","2.0268"
"4.07","174.2148","2.031733"
"4.08","174.4954","2.0367"
"4.09","174.7632","2.0416"
"4.1","175.0183","2.046433"
"4.11","175.2631","2.051467"
"4.12","175.5031","2.056567"
"4.13","175.7463","2.061467"
"4.14","175.9942","2.066533"
"4.15","176.2525","2.071567"
"4.16","176.5156","2.076533"
"4.17","176.7898","2.081667"
"4.18","177.0814","2.086633"
"4.19","177.3834","2.091633"
"4.2","177.6814","2.096733"
"4.21","177.962","2.101733"
"4.22","178.2346","2.106833"
"4.23","178.5064","2.111867"
"4.24","178.7726","2.116733"
"4.25","179.0333","2.121733"
"4.26","179.2939","2.1266"
"4.27","179.5499","2.131467"
"4.28","179.7978","2.136633"
"4.29","180.0402","2.141467"
"4.3","180.2818","2.146233"
"4.31","180.5329","2.151333"
"4.32","180.7872","2.1564"
"4.33","181.0432","2.161533"
"4.34","181.3062","2.166667"
"4.35","181.586","2.171633"
"4.36","181.8736","2.1768"
"4.37","182.159","2.1819"
"4.38","182.4347","2.1869"
"4.39","182.7018","2.191967"
"4.4","182.9632","2.196867"
"4.41","183.2199","2.201667"
"4.42","183.4695","2.2066"
"4.43","183.7103","2.211433"
"4.44","183.9368","2.216367"
"4.45","184.1474","2.221467"
"4.46","184.3516","2.226367"
"4.47","184.5551","2.2314"
"4.48","184.7696","2.2365"
"4.49","184.9914","2.2415"
"4.5","185.2107","2.246667"
"4.51","185.4293","2.2517"
"4.52","185.6502","2.256667"
"4.53","185.8751","2.2618"
"4.54","186.1087","2.266767"
"4.55","186.34","2.271733"
"4.56","186.5641","2.276767"
"4.57","186.7867","2.281633"
"4.58","187.0076","2.286633"
"4.59","187.2317","2.2916"
"4.6","187.455","2.2964"
"4.61","187.6672","2.301467"
"4.62","187.8683","2.306467"
"4.63","188.0677","2.311333"
"4.64","188.2736","2.3164"
"4.65","188.4826","2.321433"
"4.66","188.6853","2.3265"
"4.67","188.8863","2.331633"
"4.68","189.1001","2.336633"
"4.69","189.3234","2.341667"
"4.7","189.5467","2.3468"
"4.71","189.7669","2.3518"
"4.72","189.9791","2.356833"
"4.73","190.1913","2.3618"
"4.74","190.4027","2.366633"
"4.75","190.6029","2.371633"
"4.76","190.7905","2.376533"
"4.77","190.9693","2.381467"
"4.78","191.1465","2.386567"
"4.79","191.323","2.391567"
"4.8","191.4954","2.3964"
"4.81","191.6647","2.401367"
"4.82","191.8332","2.406333"
"4.83","191.9937","2.4115"
"4.84","192.1543","2.416633"
"4.85","192.318","2.4216"
"4.86","192.4872","2.426733"
"4.87","192.6605","2.4318"
"4.88","192.8345","2.436833"
"4.89","193.0062","2.441967"
"4.9","193.1755","2.4469"
"4.91","193.3384","2.451733"
"4.92","193.4966","2.456667"
"4.93","193.6507","2.461533"
"4.94","193.793","2.466533"
"4.95","193.9185","2.471533"
"4.96","194.0362","2.476367"
"4.97","194.1546","2.481367"
"4.98","194.2778","2.486467"
"4.99","194.4081","2.4915"
"5","194.5424","2.4967"
"5.01","194.6847","2.501733"
"5.02","194.8341","2.506767"
"5.03","194.989","2.511933"
"5.04","195.1472","2.516767"
"5.05","195.3022","2.521667"
"5.06","195.4516","2.526733"
"5.07","195.5946","2.531633"
"5.08","195.7289","2.536633"
"5.09","195.8553","2.541533"
"5.1","195.9753","2.546333"
"5.11","196.0834","2.551433"
"5.12","196.1748","2.5565"
"5.13","196.2503","2.5614"
"5.14","196.3147","2.566467"
"5.15","196.379","2.571433"
"5.16","196.4426","2.5765"
"5.17","196.5046","2.581633"
"5.18","196.569","2.586633"
"5.19","196.6429","2.591733"
"5.2","196.7279","2.596833"
"5.21","196.8114","2.601833"
"5.22","196.8805","2.606967"
"5.23","196.9369","2.611933"
"5.24","196.9854","2.616767"
"5.25","197.0267","2.621767"
"5.26","197.0601","2.626633"
"5.27","197.0728","2.631533"
"5.28","197.0569","2.636633"
"5.29","197.0164","2.6414"
"5.3","196.9639","2.646233"
"5.31","196.9083","2.651367"
"5.32","196.8495","2.656433"
"5.33","196.7851","2.661533"
"5.34","196.7208","2.6666"
"5.35","196.6675","2.6716"
"5.36","196.6174","2.676733"
"5.37","196.5602","2.681867"
"5.38","196.4887","2.6869"
"5.39","196.3997","2.691933"
"5.4","196.3019","2.696833"
"5.41","196.1923","2.7017"
"5.42","196.0635","2.7067"
"5.43","195.9157","2.7115"
"5.44","195.7464","2.716467"
"5.45","195.5612","2.721533"
"5.46","195.3697","2.726367"
"5.47","195.1782","2.7314"
"5.48","194.9843","2.7365"
"5.49","194.7784","2.741567"
"5.5","194.5631","2.746667"
"5.51","194.3501","2.751667"
"5.52","194.1411","2.756667"
"5.53","193.9336","2.7618"
"5.54","193.7246","2.766767"
"5.55","193.5196","2.7717"
"5.56","193.3161","2.776733"
"5.57","193.1","2.781667"
"5.58","192.8616","2.7866"
"5.59","192.6057","2.791567"
"5.6","192.3402","2.7964"
"5.61","192.0597","2.801467"
"5.62","191.7625","2.806533"
"5.63","191.4509","2.8114"
"5.64","191.129","2.8165"
"5.65","190.7889","2.8215"
"5.66","190.4178","2.826567"
"5.67","190.0085","2.8317"
"5.68","189.573","2.836667"
"5.69","189.1279","2.841633"
"5.7","188.6821","2.8467"
"5.71","188.2267","2.851767"
"5.72","187.7514","2.856833"
"5.73","187.25","2.861833"
"5.74","186.7263","2.866733"
"5.75","186.1795","2.8717"
"5.76","185.6049","2.876567"
"5.77","184.9961","2.881467"
"5.78","184.3429","2.886567"
"5.79","183.6522","2.8915"
"5.8","182.9449","2.896367"
"5.81","182.2201","2.901367"
"5.82","181.4667","2.906333"
"5.83","180.6752","2.911467"
"5.84","179.8526","2.916567"
"5.85","179.0086","2.921567"
"5.86","178.136","2.9267"
"5.87","177.2253","2.9318"
"5.88","176.2795","2.936867"
"5.89","175.3124","2.941967"
"5.9","174.3507","2.946867"
"5.91","173.4042","2.951667"
"5.92","172.4656","2.956633"
"5.93","171.5215","2.9615"
"5.94","170.5567","2.966467"
"5.95","169.5784","2.971533"
"5.96","168.6009","2.976367"
"5.97","167.6337","2.981367"
"5.98","166.6752","2.986433"
"5.99","165.712","2.991467"
"6","164.7202","2.996633"
"6.01","163.6696","3.0017"
"6.02","162.5562","3.0067"
"6.03","161.4292","3.0119"
"6.04","160.3468","3.0168"
"6.05","159.3383","3.021767"
"6.06","158.4005","3.0268"
"6.07","157.5232","3.0317"
"6.08","156.6895","3.0367"
"6.09","155.8924","3.041633"
"6.1","155.1366","3.046467"
"6.11","154.4182","3.0515"
"6.12","153.7315","3.056567"
"6.13","153.0711","3.061433"
"6.14","152.4297","3.066533"
"6.15","151.8098","3.0715"
"6.16","151.2146","3.0765"
"6.17","150.6456","3.0816"
"6.18","150.106","3.0866"
"6.19","149.5878","3.091633"
"6.2","149.0831","3.096733"
"6.21","148.584","3.101767"
"6.22","148.085","3.1069"
"6.23","147.5914","3.1119"
"6.24","147.0971","3.116733"
"6.25","146.5972","3.1217"
"6.26","146.0735","3.126567"
"6.27","145.5053","3.131467"
"6.28","144.8838","3.136633"
"6.29","144.2107","3.1415"
"6.3","143.5033","3.1463"
"6.31","142.7746","3.1514"
"6.32","142.045","3.1564"
"6.33","141.329","3.1615"
"6.34","140.6256","3.166567"
"6.35","139.9159","3.171567"
"6.36","139.1784","3.1767"
"6.37","138.425","3.1818"
"6.38","137.6796","3.186833"
"6.39","136.946","3.191933"
"6.4","136.2133","3.1968"
"6.41","135.4623","3.2017"
"6.42","134.6699","3.206667"
"6.43","133.814","3.211467"
"6.44","132.8921","3.2165"
"6.45","131.9234","3.2216"
"6.46","130.9117","3.226433"
"6.47","129.8555","3.231433"
"6.48","128.7731","3.236533"
"6.49","127.7081","3.241567"
"6.5","126.7266","3.2467"
"6.51","125.8604","3.251733"
"6.52","125.0903","3.256767"
"6.53","124.375","3.2619"
"6.54","123.7019","3.266833"
"6.55","123.0645","3.2718"
"6.56","122.4486","3.276833"
"6.57","121.8406","3.2817"
"6.58","121.239","3.286633"
"6.59","120.635","3.2916"
"6.6","120.012","3.296433"
"6.61","119.3484","3.301467"
"6.62","118.6458","3.3065"
"6.63","117.933","3.311333"
"6.64","117.2503","3.316467"
"6.65","116.6129","3.321467"
"6.66","116.0065","3.326533"
"6.67","115.4129","3.331667"
"6.68","114.8287","3.336633"
"6.69","114.251","3.341667"
"6.7","113.6875","3.3468"
"6.71","113.1566","3.3518"
"6.72","112.6575","3.356867"
"6.73","112.1767","3.361867"
"6.74","111.7055","3.3668"
"6.75","111.235","3.371733"
"6.76","110.7605","3.376567"
"6.77","110.2789","3.381433"
"6.78","109.7973","3.386533"
"6.79","109.3221","3.391467"
"6.8","108.85","3.3963"
"6.81","108.3732","3.4013"
"6.82","107.8908","3.406333"
"6.83","107.4036","3.4115"
"6.84","106.9132","3.416633"
"6.85","106.4269","3.4216"
"6.86","105.9469","3.4267"
"6.87","105.47","3.4318"
"6.88","104.9844","3.436833"
"6.89","104.4734","3.441933"
"6.9","103.9314","3.4468"
"6.91","103.3608","3.4516"
"6.92","102.7679","3.456667"
"6.93","102.16","3.461533"
"6.94","101.5337","3.466533"
"6.95","100.8868","3.4716"
"6.96","100.2264","3.476433"
"6.97","99.56281","3.481433"
"6.98","98.89841","3.486533"
"6.99","98.22687","3.4915"
"7","97.54419","3.496633"
"7.01","96.84881","3.501667"
"7.02","96.14468","3.506733"
"7.03","95.46042","3.511833"
"7.04","94.81986","3.516733"
"7.05","94.21428","3.521667"
"7.06","93.62777","3.5268"
"7.07","93.05477","3.531733"
"7.08","92.49925","3.5367"
"7.09","91.97553","3.541567"
"7.1","91.48995","3.546333"
"7.11","91.03457","3.551433"
"7.12","90.58475","3.5565"
"7.13","90.12381","3.561367"
"7.14","89.64777","3.5664"
"7.15","89.1606","3.571433"
"7.16","88.67422","3.576467"
"7.17","88.20296","3.5816"
"7.18","87.74439","3.5866"
"7.19","87.27392","3.591667"
"7.2","86.75496","3.5968"
"7.21","86.18117","3.601833"
"7.22","85.58432","3.606867"
"7.23","84.99622","3.611867"
"7.24","84.41209","3.616767"
"7.25","83.8089","3.621733"
"7.26","83.16756","3.6266"
"7.27","82.49362","3.6315"
"7.28","81.81254","3.6365"
"7.29","81.16087","3.6414"
"7.3","80.55528","3.646333"
"7.31","79.99738","3.651467"
"7.32","79.47047","3.656467"
"7.33","78.96582","3.661567"
"7.34","78.48581","3.666633"
"7.35","78.02407","3.671567"
"7.36","77.56949","3.676733"
"7.37","77.11411","3.681833"
"7.38","76.65157","3.686867"
"7.39","76.17632","3.691933"
"7.4","75.67485","3.696833"
"7.41","75.14795","3.701767"
"7.42","74.6115","3.706667"
"7.43","74.08698","3.711433"
"7.44","73.57041","3.7164"
"7.45","73.05543","3.7215"
"7.46","72.54203","3.726333"
"7.47","72.03023","3.731367"
"7.48","71.5216","3.736433"
"7.49","71.01138","3.741467"
"7.5","70.50752","3.7467"
"7.51","70.02274","3.751733"
"7.52","69.54829","3.7567"
"7.53","69.05953","3.7618"
"7.54","68.51832","3.766733"
"7.55","67.90002","3.771733"
"7.56","67.21178","3.7768"
"7.57","66.48938","3.781733"
"7.58","65.76538","3.7867"
"7.59","65.04297","3.791633"
"7.6","64.30864","3.796467"
"7.61","63.5465","3.801467"
"7.62","62.75495","3.806467"
"7.63","61.93559","3.811433"
"7.64","61.09158","3.816467"
"7.65","60.19433","3.821467"
"7.66","59.18423","3.826567"
"7.67","57.82604","3.8317"
"7.68","55.23364","3.836667"
"7.69","50.08538","3.8417"
"7.7","42.68646","3.846833"
"7.71","35.79776","3.851833"
"7.72","31.62622","3.8569"
"7.73","29.58933","3.8619"
"7.74","28.27565","3.8668"
"7.75","27.36568","3.871733"
"7.76","26.93335","3.876567"
"7.77","26.75295","3.881467"
"7.78","26.65679","3.886567"
"7.79","26.65281","3.8915"
"7.8","26.68142","3.896367"
"7.81","26.64566","3.9014"
"7.82","26.59082","3.906467"
"7.83","26.59957","3.911633"
"7.84","26.62897","3.916733"
"7.85","26.60831","3.921633"
"7.86","26.57493","3.9267"
"7.87","26.59241","3.931767"
"7.88","26.62102","3.936833"
"7.89","26.60116","3.941933"
"7.9","26.55983","3.946833"
"7.91","26.49943","3.951667"
"7.92","26.3389","3.956633"
"7.93","26.09094","3.961467"
"7.94","25.94551","3.966433"
"7.95","26.03054","3.971433"
"7.96","26.21571","3.976267"
"7.97","26.29598","3.981333"
"7.98","26.23638","3.986467"
"7.99","26.14419","3.9915"
"8","26.11319","3.996667"
"8.01","26.1871","4.001667"
"8.02","26.36909","4.0067"
"8.03","26.58129","4.011833"
"8.04","26.71242","4.016733"
"8.05","26.73705","4.021667"
"8.06","26.73705","4.0268"
"8.07","26.77043","4.0317"
"8.08","26.80063","4.036667"
"8.09","26.76407","4.041567"
"8.1","26.68142","4.046367"
"8.11","26.62818","4.051434"
"8.12","26.61228","4.0565"
"8.13","26.58606","4.0614"
"8.14","26.53917","4.066467"
"8.15","26.48512","4.071434"
"8.16","26.43506","4.076433"
"8.17","26.42075","4.0816"
"8.18","26.47479","4.0866"
"8.19","26.58129","4.091633"
"8.2","26.67507","4.0968"
"8.21","26.72434","4.1018"
"8.22","26.75374","4.106867"
"8.23","26.79984","4.111933"
"8.24","26.84037","4.1168"
"8.25","26.84673","4.121767"
"8.26","26.84037","4.126633"
"8.27","26.85547","4.131533"
"8.28","26.86262","4.136533"
"8.29","26.82606","4.141366"
"8.3","26.78235","4.146234"
"8.31","26.79507","4.151333"
"8.32","26.84514","4.1564"
"8.33","26.87613","4.161533"
"8.34","26.87613","4.1666"
"8.35","26.87852","4.171566"
"8.36","26.88408","4.176733"
"8.37","26.86898","4.181867"
"8.38","26.84514","4.186867"
"8.39","26.83798","4.1919"
"8.4","26.84196","4.1968"
"8.41","26.83083","4.2017"
"8.42","26.80937","4.206634"
"8.43","26.79507","4.211433"
"8.44","26.78156","4.216467"
"8.45","26.75533","4.221533"
"8.46","26.7307","4.2264"
"8.47","26.71719","4.231367"
"8.48","26.70447","4.236467"
"8.49","26.67109","4.2415"
"8.5","26.63294","4.2467"
"8.51","26.61785","4.2517"
"8.52","26.62341","4.2567"
"8.53","26.62579","4.261767"
"8.54","26.6242","4.2667"
"8.55","26.6393","4.271733"
"8.56","26.66791","4.276834"
"8.57","26.68858","4.281767"
"8.58","26.70209","4.286667"
"8.59","26.72037","4.291533"
"8.6","26.73785","4.2964"
"8.61","26.73785","4.301467"
"8.62","26.72911","4.306467"
"8.63","26.73467","4.311367"
"8.64","26.74659","4.316433"
"8.65","26.74262","4.321467"
"8.66","26.72434","4.326567"
"8.67","26.7156","4.3317"
"8.68","26.7156","4.3367"
"8.69","26.70129","4.341733"
"8.7","26.67586","4.3468"
"8.71","26.66473","4.3518"
"8.72","26.66791","4.356867"
"8.73","26.66394","4.361867"
"8.74","26.65758","4.366734"
"8.75","26.66394","4.3717"
"8.76","26.67109","4.376567"
"8.77","26.65758","4.381533"
"8.78","26.63215","4.3866"
"8.79","26.61069","4.391467"
"8.8","26.59003","4.396333"
"8.81","26.55665","4.401367"
"8.82","26.52089","4.406434"
"8.83","26.49943","4.411567"
"8.84","26.48354","4.416634"
"8.85","26.46605","4.421566"
"8.86","26.46049","4.426733"
"8.87","26.48274","4.431867"
"8.88","26.5185","4.4369"
"8.89","26.54632","4.441967"
"8.9","26.56539","4.446867"
"8.91","26.58367","4.451734"
"8.92","26.59559","4.456667"
"8.93","26.59559","4.461534"
"8.94","26.59003","4.4665"
"8.95","26.58844","4.471533"
"8.96","26.59003","4.476367"
"8.97","26.58208","4.481333"
"8.98","26.56778","4.486467"
"8.99","26.55983","4.491533"
"9","26.55745","4.4967"
"9.01","26.55427","4.5017"
"9.02","26.55268","4.506733"
"9.03","26.56142","4.5119"
"9.04","26.57096","4.5168"
"9.05","26.57255","4.521767"
"9.06","26.57255","4.526867"
"9.07","26.5789","4.531767"
"9.08","26.58208","4.536767"
"9.09","26.5789","4.541667"
"9.1","26.57493","4.546467"
"9.11","26.5789","4.551467"
"9.12","26.58129","4.556467"
"9.13","26.57255","4.5613"
"9.14","26.56301","4.566367"
"9.15","26.55665","4.5714"
"9.16","26.55268","4.576467"
"9.17","26.55029","4.5816"
"9.18","26.55903","4.586567"
"9.19","26.57096","4.591633"
"9.2","26.57255","4.5968"
"9.21","26.56539","4.6018"
"9.22","26.56619","4.606833"
"9.23","26.5797","4.611867"
"9.24","26.59003","4.616734"
"9.25","26.58764","4.621733"
"9.26","26.57731","4.6266"
"9.27","26.56619","4.631467"
"9.28","26.55983","4.6365"
"9.29","26.55506","4.641334"
"9.3","26.55188","4.6462"
"9.31","26.55029","4.651333"
"9.32","26.54791","4.656434"
"9.33","26.54632","4.661567"
"9.34","26.55268","4.666634"
"9.35","26.56301","4.671566"
"9.36","26.56619","4.676733"
"9.37","26.55983","4.681867"
"9.38","26.55903","4.686867"
"9.39","26.57016","4.691933"
"9.4","26.58447","4.696867"
"9.41","26.58606","4.701766"
"9.42","26.57731","4.706667"
"9.43","26.57255","4.7115"
"9.44","26.57413","4.7164"
"9.45","26.57255","4.721467"
"9.46","26.57016","4.726334"
"9.47","26.56778","4.731333"
"9.48","26.5638","4.736434"
"9.49","26.55506","4.741467"
"9.5","26.54632","4.746634"
"9.51","26.54314","4.7517"
"9.52","26.54155","4.756733"
"9.53","26.54076","4.761867"
"9.54","26.53519","4.766833"
"9.55","26.52407","4.7718"
"9.56","26.50579","4.776834"
"9.57","26.48751","4.781767"
"9.58","26.47241","4.7867"
"9.59","26.45731","4.791567"
"9.6","26.44539","4.796367"
"9.61","26.4438","4.801367"
"9.62","26.45651","4.806467"
"9.63","26.47161","4.811333"
"9.64","26.47003","4.8164"
"9.65","26.46049","4.821434"
"9.66","26.46049","4.8266"
"9.67","26.48115","4.8317"
"9.68","26.51056","4.8366"
"9.69","26.53042","4.841633"
"9.7","26.53201","4.846734"
"9.71","26.52168","4.851767"
"9.72","26.5034","4.8569"
"9.73","26.48115","4.8619"
"9.74","26.46526","4.8668"
"9.75","26.46128","4.8717"
"9.76","26.46287","4.8766"
"9.77","26.46605","4.8815"
"9.78","26.474","4.886567"
"9.79","26.4883","4.891467"
"9.8","26.49864","4.896333"
"9.81","26.5042","4.9013"
"9.82","26.51294","4.9063"
"9.83","26.52168","4.9115"
"9.84","26.52407","4.9167"
"9.85","26.52566","4.921633"
"9.86","26.53201","4.926733"
"9.87","26.54076","4.931833"
"9.88","26.54155","4.936867"
"9.89","26.5344","4.941967"
"9.9","26.52168","4.946867"
"9.91","26.50976","4.951766"
"9.92","26.50976","4.9567"
"9.93","26.52645","4.961534"
"9.94","26.55268","4.9665"
"9.95","26.58367","4.971533"
"9.96","26.62341","4.9764"
"9.97","26.66871","4.9814"
"9.98","26.70209","4.986467"
"9.99","26.70368","4.9915"
"10","26.68222","4.996567"
"10.01","26.66871","5.001633"
"10.02","26.67348","5.0067"
"10.03","26.68858","5.011833"
"10.04","26.69811","5.0167"
"10.05","26.70685","5.021767"
"10.06","26.71957","5.026867"
"10.07","26.73705","5.031767"
"10.08","26.74898","5.0367"
"10.09","26.75136","5.0416"
"10.1","26.74659","5.0464"
"10.11","26.74262","5.051434"
"10.12","26.74421","5.0565"
"10.13","26.74818","5.061367"
"10.14","26.75295","5.066467"
"10.15","26.75613","5.0715"
"10.16","26.75533","5.0765"
"10.17","26.75136","5.081634"
"10.18","26.74818","5.086633"
"10.19","26.74182","5.091733"
"10.2","26.73467","5.096833"
"10.21","26.73149","5.101867"
"10.22","26.73149","5.106966"
"10.23","26.7307","5.111933"
"10.24","26.7307","5.116734"
"10.25","26.73546","5.1217"
"10.26","26.74023","5.126633"
"10.27","26.73944","5.1315"
"10.28","26.73308","5.136567"
"10.29","26.72831","5.1414"
"10.3","26.72593","5.146267"
"10.31","26.72593","5.151367"
"10.32","26.72593","5.156367"
"10.33","26.72593","5.1615"
"10.34","26.72672","5.166634"
"10.35","26.72434","5.1716"
"10.36","26.7156","5.1767"
"10.37","26.70685","5.181833"
"10.38","26.70368","5.185833"
"10.39","26.70606","5.1872"