File: degradation_testing/tensile_testing/PLA/PLA_Control/P-run-5.csv
"1 _ 1",,
"Time","Force","Stroke"
"sec","N","mm"
"0","-3.889402","0.0001"
"0.01","-3.885428","0.002033333"
"0.02","-3.874302","0.0063"
"0.03","-3.790855","0.01123333"
"0.04","-3.391902","0.0164"
"0.05","-2.249082","0.0215"
"0.06","-0.0500679","0.02643333"
"0.07","3.097057","0.03163333"
"0.08","6.777445","0.03676667"
"0.09","10.63983","0.04183333"
"0.1","14.5491","0.04693333"
"0.11","18.47744","0.05186667"
"0.12","22.39307","0.0567"
"0.13","26.25227","0.06166667"
"0.14","30.01928","0.06646667"
"0.15","33.67742","0.07143334"
"0.16","37.20919","0.0765"
"0.17","40.57725","0.08136667"
"0.18","43.70928","0.08636667"
"0.19","46.50752","0.09146667"
"0.2","48.78362","0.09646667"
"0.21","50.25307","0.1016"
"0.22","50.80541","0.1067333"
"0.23","50.74819","0.1117667"
"0.24","50.59481","0.1169"
"0.25","50.62024","0.1218333"
"0.26","50.7919","0.1268333"
"0.27","51.00806","0.1318333"
"0.28","51.24092","0.1367667"
"0.29","51.50795","0.1417667"
"0.3","51.83379","0.1466667"
"0.31","52.25658","0.1514667"
"0.32","52.79859","0.1565"
"0.33","53.42086","0.1615"
"0.34","54.00658","0.1664"
"0.35","54.44606","0.1714667"
"0.36","54.79177","0.1765"
"0.37","55.17085","0.1815667"
"0.38","55.49908","0.1867333"
"0.39","55.51497","0.1917"
"0.4","55.19946","0.1967333"
"0.41","54.84263","0.2018"
"0.42","54.65348","0.2068333"
"0.43","54.6066","0.2119333"
"0.44","54.61375","0.2169333"
"0.45","54.62726","0.2218"
"0.46","54.64077","0.2267667"
"0.47","54.65984","0.2316333"
"0.48","54.68051","0.2365333"
"0.49","54.70912","0.2416"
"0.5","54.74965","0.2465333"
"0.51","54.78144","0.2513667"
"0.52","54.79018","0.2564333"
"0.53","54.79018","0.2614"
"0.54","54.80289","0.2665667"
"0.55","54.82038","0.2717333"
"0.56","54.81005","0.2767"
"0.57","54.77349","0.2818334"
"0.58","54.74965","0.2869333"
"0.59","54.75362","0.2919667"
"0.6","54.75839","0.2970333"
"0.61","54.74965","0.3019"
"0.62","54.75203","0.3067667"
"0.63","54.77588","0.3117333"
"0.64","54.80289","0.3165667"
"0.65","54.82356","0.3215333"
"0.66","54.85058","0.3265667"
"0.67","54.88634","0.3314"
"0.68","54.91018","0.3363667"
"0.69","54.91654","0.3415"
"0.7","54.91893","0.3465667"
"0.71","54.92369","0.3517333"
"0.72","54.92369","0.3568"
"0.73","54.91893","0.3618333"
"0.74","54.91893","0.3669333"
"0.75","54.92131","0.3718"
"0.76","54.91972","0.3767"
"0.77","54.92767","0.3818"
"0.78","54.95707","0.3867667"
"0.79","54.99045","0.3917667"
"0.8","55.00873","0.3967"
"0.81","55.01429","0.4015333"
"0.82","55.02383","0.4065667"
"0.83","55.04449","0.4115667"
"0.84","55.08423","0.4164333"
"0.85","55.21854","0.4214333"
"0.86","55.66994","0.4264333"
"0.87","56.72455","0.4315"
"0.88","58.49918","0.4366333"
"0.89","60.80468","0.4416333"
"0.9","63.28583","0.4467333"
"0.91","65.6716","0.4518667"
"0.92","67.90559","0.4569"
"0.93","70.06566","0.4619667"
"0.94","72.19871","0.467"
"0.95","74.25229","0.4718667"
"0.96","76.15408","0.4768333"
"0.97","77.88817","0.4816667"
"0.98","79.48478","0.4865333"
"0.99","80.98682","0.4916"
"1","82.46501","0.4964333"
"1.01","84.00838","0.5013"
"1.02","85.69161","0.5064"
"1.03","87.56002","0.5114667"
"1.04","89.63108","0.5165333"
"1.05","91.92864","0.5216"
"1.06","94.48449","0.5265"
"1.07","97.31055","0.5316667"
"1.08","100.3647","0.5368"
"1.09","103.5619","0.5418"
"1.1","106.8481","0.5468667"
"1.11","110.2471","0.5518"
"1.12","113.79","0.5566667"
"1.13","117.449","0.5616333"
"1.14","121.1429","0.5664667"
"1.15","124.7938","0.5714334"
"1.16","128.3526","0.5765"
"1.17","131.8185","0.5813667"
"1.18","135.2461","0.5863667"
"1.19","138.7167","0.5914333"
"1.2","142.2461","0.5964667"
"1.21","145.7596","0.6016333"
"1.22","149.2127","0.6067"
"1.23","152.6682","0.6117"
"1.24","156.2285","0.6168666"
"1.25","159.9042","0.6218667"
"1.26","163.5901","0.6268"
"1.27","167.1815","0.6318"
"1.28","170.699","0.6366333"
"1.29","174.2506","0.6416"
"1.3","177.8976","0.6465"
"1.31","181.5693","0.6513667"
"1.32","185.1543","0.6564"
"1.33","188.6304","0.6614667"
"1.34","192.0875","0.6663667"
"1.35","195.597","0.6714333"
"1.36","199.1391","0.6764667"
"1.37","202.6335","0.6815667"
"1.38","206.0533","0.6867"
"1.39","209.4706","0.6916667"
"1.4","212.9722","0.6967"
"1.41","216.5437","0.7018"
"1.42","220.0977","0.7068"
"1.43","223.5794","0.7119333"
"1.44","227.0285","0.7169667"
"1.45","230.5094","0.7217667"
"1.46","234.0086","0.7267666"
"1.47","237.4577","0.7316334"
"1.48","240.8242","0.7365"
"1.49","244.1502","0.7416"
"1.5","247.492","0.7465"
"1.51","250.8537","0.7513667"
"1.52","254.2067","0.7564"
"1.53","257.5461","0.7613667"
"1.54","260.8903","0.7665"
"1.55","264.26","0.7716"
"1.56","267.6598","0.7766"
"1.57","271.0819","0.7817333"
"1.58","274.5168","0.7868667"
"1.59","277.9635","0.7919"
"1.6","281.4237","0.797"
"1.61","284.8856","0.8019"
"1.62","288.3275","0.8067667"
"1.63","291.7298","0.8117"
"1.64","295.0978","0.8165333"
"1.65","298.442","0.8215"
"1.66","301.7513","0.8265667"
"1.67","305.0208","0.8314"
"1.68","308.2736","0.8363667"
"1.69","311.5575","0.8415"
"1.7","314.8794","0.8465667"
"1.71","318.1998","0.8517333"
"1.72","321.5011","0.8567667"
"1.73","324.8111","0.8617667"
"1.74","328.1593","0.8669333"
"1.75","331.5179","0.8718"
"1.76","334.851","0.8767334"
"1.77","338.1523","0.8818667"
"1.78","341.4353","0.8868334"
"1.79","344.6953","0.8917667"
"1.8","347.933","0.8967"
"1.81","351.1643","0.9015"
"1.82","354.375","0.9065334"
"1.83","357.5325","0.9115334"
"1.84","360.6264","0.9164"
"1.85","363.6853","0.9215333"
"1.86","366.7331","0.9265333"
"1.87","369.769","0.9315667"
"1.88","372.8048","0.9367"
"1.89","375.8645","0.9416"
"1.9","378.9457","0.9466333"
"1.91","382.0125","0.9517667"
"1.92","385.0452","0.9568667"
"1.93","388.0461","0.9619667"
"1.94","391.0128","0.9669667"
"1.95","393.9446","0.9718333"
"1.96","396.8533","0.9768"
"1.97","399.7516","0.9816334"
"1.98","402.6365","0.9865333"
"1.99","405.4896","0.9916334"
"2","408.299","0.9964333"
"2.01","411.0773","1.001267"
"2.02","413.8454","1.006367"
"2.03","416.5999","1.0114"
"2.04","419.3274","1.016567"
"2.05","422.0351","1.021667"
"2.06","424.7586","1.0266"
"2.07","427.5147","1.031733"
"2.08","430.2859","1.036867"
"2.09","433.0365","1.041833"
"2.1","435.7457","1.046933"
"2.11","438.4247","1.051867"
"2.12","441.0871","1.0567"
"2.13","443.72","1.061633"
"2.14","446.295","1.066433"
"2.15","448.7896","1.0714"
"2.16","451.1984","1.0765"
"2.17","453.5294","1.081367"
"2.18","455.8094","1.0864"
"2.19","458.0609","1.091467"
"2.2","460.2885","1.096567"
"2.21","462.4796","1.101733"
"2.22","464.6309","1.1068"
"2.23","466.7576","1.111833"
"2.24","468.8644","1.116967"
"2.25","470.9466","1.1219"
"2.26","472.9843","1.1268"
"2.27","474.9624","1.1318"
"2.28","476.8705","1.1367"
"2.29","478.7032","1.141633"
"2.3","480.4611","1.1466"
"2.31","482.1443","1.151433"
"2.32","483.7569","1.156467"
"2.33","485.3058","1.1615"
"2.34","486.8022","1.166367"
"2.35","488.2646","1.1714"
"2.36","489.7054","1.1764"
"2.37","491.1184","1.181467"
"2.38","492.4869","1.1866"
"2.39","493.8229","1.191533"
"2.4","495.1604","1.196567"
"2.41","496.5091","1.2017"
"2.42","497.8482","1.206733"
"2.43","499.1555","1.211867"
"2.44","500.4319","1.2169"
"2.45","501.6788","1.221833"
"2.46","502.8955","1.2268"
"2.47","504.0757","1.2316"
"2.48","505.2161","1.2365"
"2.49","506.2953","1.2416"
"2.5","507.3039","1.246533"
"2.51","508.2615","1.251367"
"2.52","509.2025","1.2563"
"2.53","510.1498","1.2613"
"2.54","511.0828","1.266467"
"2.55","511.9713","1.271633"
"2.56","512.8217","1.276633"
"2.57","513.6729","1.281767"
"2.58","514.5351","1.286833"
"2.59","515.3807","1.2919"
"2.6","516.1746","1.297033"
"2.61","516.9209","1.301867"
"2.62","517.6345","1.306733"
"2.63","518.3204","1.311733"
"2.64","518.9522","1.316567"
"2.65","519.5133","1.321567"
"2.66","520.0084","1.326633"
"2.67","520.4678","1.331433"
"2.68","520.9064","1.336433"
"2.69","521.3308","1.3415"
"2.7","521.7449","1.346533"
"2.71","522.1462","1.351667"
"2.72","522.5396","1.356733"
"2.73","522.9354","1.3618"
"2.74","523.3351","1.367033"
"2.75","523.738","1.3719"
"2.76","524.1426","1.376767"
"2.77","524.5416","1.381767"
"2.78","524.9262","1.3867"
"2.79","525.2727","1.3917"
"2.8","525.5715","1.396633"
"2.81","525.8425","1.4014"
"2.82","526.0976","1.406467"
"2.83","526.3384","1.411533"
"2.84","526.5522","1.416433"
"2.85","526.7477","1.4215"
"2.86","526.944","1.4265"
"2.87","527.1554","1.4316"
"2.88","527.3748","1.4367"
"2.89","527.6036","1.441667"
"2.9","527.8452","1.446733"
"2.91","528.0964","1.451833"
"2.92","528.3332","1.456833"
"2.93","528.5398","1.4619"
"2.94","528.7186","1.466967"
"2.95","528.8728","1.471833"
"2.96","529.0015","1.476833"
"2.97","529.1025","1.4817"
"2.98","529.174","1.486567"
"2.99","529.2098","1.491733"
"3","529.205","1.4965"
"3.01","529.1732","1.5013"
"3.02","529.1335","1.5064"
"3.03","529.0826","1.5114"
"3.04","529.0015","1.516533"
"3.05","528.8863","1.521667"
"3.06","528.7695","1.526667"
"3.07","528.6566","1.531833"
"3.08","528.5208","1.536933"
"3.09","528.3292","1.5419"
"3.1","528.0701","1.546967"
"3.11","527.7491","1.551867"
"3.12","527.3636","1.556767"
"3.13","526.9178","1.5617"
"3.14","526.4179","1.566567"
"3.15","525.8647","1.571533"
"3.16","525.248","1.576633"
"3.17","524.5677","1.581433"
"3.18","523.8453","1.5864"
"3.19","523.0991","1.5915"
"3.2","522.329","1.5965"
"3.21","521.516","1.601667"
"3.22","520.668","1.6067"
"3.23","519.8081","1.611733"
"3.24","518.9403","1.6169"
"3.25","518.0558","1.621867"
"3.26","517.1522","1.626767"
"3.27","516.2327","1.6318"
"3.28","515.2917","1.6367"
"3.29","514.3214","1.641667"
"3.3","513.3199","1.646633"
"3.31","512.3035","1.651467"
"3.32","511.2847","1.656467"
"3.33","510.2714","1.661467"
"3.34","509.2692","1.666333"
"3.35","508.2806","1.671433"
"3.36","507.315","1.676433"
"3.37","506.3764","1.681533"
"3.38","505.468","1.686733"
"3.39","504.6034","1.6917"
"3.4","503.7951","1.696733"
"3.41","503.037","1.701833"
"3.42","502.3011","1.706833"
"3.43","501.55","1.7119"
"3.44","500.776","1.716933"
"3.45","499.9995","1.7218"
"3.46","499.2358","1.726733"
"3.47","498.4776","1.7315"
"3.48","497.702","1.736467"
"3.49","496.8858","1.7416"
"3.5","496.0402","1.7466"
"3.51","495.2041","1.751433"
"3.52","494.4205","1.756367"
"3.53","493.7085","1.761333"
"3.54","493.0329","1.7665"
"3.55","492.3574","1.771667"
"3.56","491.6851","1.776633"
"3.57","491.054","1.781767"
"3.58","490.4787","1.786867"
"3.59","489.9383","1.7919"
"3.6","489.3947","1.797"
"3.61","488.8415","1.801867"
"3.62","488.2892","1.806733"
"3.63","487.7401","1.811633"
"3.64","487.1726","1.816467"
"3.65","486.5702","1.821467"
"3.66","485.9328","1.826533"
"3.67","485.2859","1.8314"
"3.68","484.6581","1.836433"
"3.69","484.0708","1.8415"
"3.7","483.5161","1.8465"
"3.71","482.9772","1.851667"
"3.72","482.4543","1.8567"
"3.73","481.964","1.861733"
"3.74","481.5046","1.867"
"3.75","481.062","1.871867"
"3.76","480.6264","1.8767"
"3.77","480.2004","1.881733"
"3.78","479.7729","1.886667"
"3.79","479.3143","1.8917"
"3.8","478.8192","1.8966"
"3.81","478.317","1.9014"
"3.82","477.8266","1.9065"
"3.83","477.3386","1.911567"
"3.84","476.8435","1.916467"
"3.85","476.3468","1.9215"
"3.86","475.8692","1.926467"
"3.87","475.4162","1.9315"
"3.88","474.9727","1.936667"
"3.89","474.5277","1.941633"
"3.9","474.0858","1.9467"
"3.91","473.6551","1.951833"
"3.92","473.2339","1.956833"
"3.93","472.8111","1.961967"
"3.94","472.3779","1.967033"
"3.95","471.9384","1.971867"
"3.96","471.5037","1.9768"
"3.97","471.0698","1.981667"
"3.98","470.6192","1.986567"
"3.99","470.1281","1.9917"
"4","469.6067","1.996533"
"4.01","469.0917","2.001333"
"4.02","468.6086","2.006367"
"4.03","468.154","2.0114"
"4.04","467.697","2.0165"
"4.05","467.2345","2.0216"
"4.06","466.7974","2.026567"
"4.07","466.4119","2.031767"
"4.08","466.067","2.036833"
"4.09","465.7308","2.041833"
"4.1","465.3867","2.046967"
"4.11","465.0386","2.0519"
"4.12","464.6937","2.056833"
"4.13","464.3496","2.061733"
"4.14","463.9951","2.0665"
"4.15","463.6161","2.071467"
"4.16","463.2004","2.0766"
"4.17","462.7498","2.081433"
"4.18","462.2809","2.0864"
"4.19","461.8224","2.091433"
"4.2","461.39","2.0965"
"4.21","460.9728","2.101733"
"4.22","460.5563","2.1068"
"4.23","460.163","2.111833"
"4.24","459.8204","2.117"
"4.25","459.5216","2.121933"
"4.26","459.2276","2.126867"
"4.27","458.9144","2.131867"
"4.28","458.5743","2.1367"
"4.29","458.2016","2.141667"
"4.3","457.7963","2.1466"
"4.31","457.3719","2.151467"
"4.32","456.938","2.1565"
"4.33","456.5024","2.1615"
"4.34","456.063","2.166433"
"4.35","455.6195","2.1715"
"4.36","455.1872","2.1765"
"4.37","454.7747","2.1816"
"4.38","454.3734","2.186767"
"4.39","453.9839","2.191733"
"4.4","453.62","2.196733"
"4.41","453.2814","2.201833"
"4.42","452.9508","2.206867"
"4.43","452.6059","2.211933"
"4.44","452.2467","2.216967"
"4.45","451.8859","2.221833"
"4.46","451.5219","2.226733"
"4.47","451.1372","2.231567"
"4.48","450.7224","2.236467"
"4.49","450.2757","2.241533"
"4.5","449.8061","2.2465"
"4.51","449.3403","2.251367"
"4.52","448.9048","2.2563"
"4.53","448.5122","2.261267"
"4.54","448.1427","2.266433"
"4.55","447.7747","2.271633"
"4.56","447.4131","2.276633"
"4.57","447.0881","2.281767"
"4.58","446.8091","2.286833"
"4.59","446.5493","2.2919"
"4.6","446.2814","2.297033"
"4.61","445.9961","2.301867"
"4.62","445.6925","2.306733"
"4.63","445.3675","2.311633"
"4.64","445.0186","2.316433"
"4.65","444.6316","2.321467"
"4.66","444.1992","2.3266"
"4.67","443.7288","2.331433"
"4.68","443.2511","2.336433"
"4.69","442.8005","2.341467"
"4.7","442.3714","2.346533"
"4.71","441.9366","2.351667"
"4.72","441.4884","2.3567"
"4.73","441.049","2.361667"
"4.74","440.6325","2.3669"
"4.75","440.2304","2.371833"
"4.76","439.8298","2.376733"
"4.77","439.4301","2.381767"
"4.78","439.0264","2.3867"
"4.79","438.606","2.391667"
"4.8","438.1641","2.396567"
"4.81","437.7111","2.4014"
"4.82","437.2501","2.406533"
"4.83","436.7749","2.4116"
"4.84","436.2869","2.416433"
"4.85","435.8101","2.4215"
"4.86","435.3611","2.426567"
"4.87","434.9152","2.4316"
"4.88","434.4416","2.436633"
"4.89","433.952","2.4416"
"4.9","433.4712","2.446633"
"4.91","432.9959","2.451767"
"4.92","432.5064","2.456767"
"4.93","432.0089","2.461867"
"4.94","431.5178","2.4669"
"4.95","431.0409","2.471833"
"4.96","430.5776","2.476833"
"4.97","430.1183","2.481667"
"4.98","429.6494","2.4865"
"4.99","429.1598","2.491667"
"5","428.6448","2.496533"
"5.01","428.1155","2.5013"
"5.02","427.5974","2.506367"
"5.03","427.1102","2.5114"
"5.04","426.6397","2.516567"
"5.05","426.174","2.5217"
"5.06","425.7329","2.526633"
"5.07","425.3332","2.5318"
"5.08","424.9565","2.536867"
"5.09","424.5687","2.541867"
"5.1","424.1483","2.547"
"5.11","423.7112","2.551933"
"5.12","423.2733","2.5568"
"5.13","422.8282","2.5617"
"5.14","422.3649","2.566467"
"5.15","421.8674","2.571467"
"5.16","421.3238","2.576567"
"5.17","420.7476","2.581433"
"5.18","420.1667","2.586467"
"5.19","419.6151","2.591567"
"5.2","419.0938","2.5966"
"5.21","418.5907","2.601733"
"5.22","418.1012","2.606767"
"5.23","417.6275","2.611767"
"5.24","417.1769","2.616933"
"5.25","416.7437","2.6219"
"5.26","416.3233","2.6268"
"5.27","415.9037","2.6318"
"5.28","415.4785","2.6367"
"5.29","415.0414","2.6417"
"5.3","414.59","2.646633"
"5.31","414.114","2.651433"
"5.32","413.6117","2.656433"
"5.33","413.0896","2.661467"
"5.34","412.5595","2.6664"
"5.35","412.035","2.6715"
"5.36","411.5208","2.6765"
"5.37","411.0193","2.681567"
"5.38","410.5282","2.686733"
"5.39","410.0466","2.6917"
"5.4","409.5793","2.696733"
"5.41","409.1334","2.7018"
"5.42","408.6963","2.7068"
"5.43","408.2473","2.7119"
"5.44","407.78","2.716967"
"5.45","407.3143","2.721867"
"5.46","406.8653","2.7268"
"5.47","406.4282","2.7316"
"5.48","405.9807","2.736533"
"5.49","405.5039","2.7416"
"5.5","404.9977","2.746567"
"5.51","404.4875","2.751467"
"5.52","404.0074","2.756433"
"5.53","403.5735","2.7614"
"5.54","403.169","2.766567"
"5.55","402.7613","2.7717"
"5.56","402.3512","2.776633"
"5.57","401.9682","2.781733"
"5.58","401.6177","2.786833"
"5.59","401.268","2.791867"
"5.6","400.8929","2.796967"
"5.61","400.4963","2.801867"
"5.62","400.099","2.806767"
"5.63","399.6897","2.811733"
"5.64","399.2438","2.816533"
"5.65","398.7527","2.8215"
"5.66","398.2314","2.826567"
"5.67","397.6981","2.831467"
"5.68","397.1609","2.836433"
"5.69","396.6244","2.8415"
"5.7","396.0951","2.846533"
"5.71","395.5627","2.851667"
"5.72","395.0318","2.856733"
"5.73","394.52","2.8618"
"5.74","394.0423","2.866967"
"5.75","393.5901","2.871767"
"5.76","393.1578","2.876667"
"5.77","392.743","2.8817"
"5.78","392.3257","2.886633"
"5.79","391.8846","2.891667"
"5.8","391.4293","2.896567"
"5.81","390.9818","2.901367"
"5.82","390.5352","2.906433"
"5.83","390.0655","2.911533"
"5.84","389.5728","2.9164"
"5.85","389.08","2.9215"
"5.86","388.6056","2.9265"
"5.87","388.1407","2.9315"
"5.88","387.6575","2.936633"
"5.89","387.1489","2.941633"
"5.9","386.6339","2.946733"
"5.91","386.1284","2.9518"
"5.92","385.6333","2.956833"
"5.93","385.1334","2.961933"
"5.94","384.6169","2.966933"
"5.95","384.0796","2.9718"
"5.96","383.5217","2.9768"
"5.97","382.9336","2.9817"
"5.98","382.3113","2.986567"
"5.99","381.6589","2.991633"
"6","380.9913","2.9964"
"6.01","380.3221","3.001233"
"6.02","379.6601","3.006333"
"6.03","378.9989","3.011367"
"6.04","378.3337","3.016533"
"6.05","377.6773","3.021667"
"6.06","377.0638","3.026633"
"6.07","376.4979","3.0318"
"6.08","375.944","3.036867"
"6.09","375.3559","3.041867"
"6.1","374.7098","3.047"
"6.11","374.0096","3.0519"
"6.12","373.2737","3.056733"
"6.13","372.5107","3.061633"
"6.14","371.7136","3.066433"
"6.15","370.8831","3.071433"
"6.16","370.0169","3.076567"
"6.17","369.1355","3.081433"
"6.18","368.2574","3.086367"
"6.19","367.4062","3.0915"
"6.2","366.5741","3.096567"
"6.21","365.727","3.101667"
"6.22","364.8464","3.106733"
"6.23","363.9595","3.111767"
"6.24","363.0972","3.116867"
"6.25","362.25","3.121833"
"6.26","361.3782","3.126833"
"6.27","360.4396","3.131867"
"6.28","359.4176","3.136767"
"6.29","358.3169","3.1417"
"6.3","357.1646","3.1466"
"6.31","355.9852","3.151433"
"6.32","354.7986","3.1565"
"6.33","353.6177","3.161567"
"6.34","352.4597","3.166433"
"6.35","351.3519","3.171533"
"6.36","350.3203","3.176533"
"6.37","349.3595","3.181533"
"6.38","348.4472","3.1867"
"6.39","347.569","3.1917"
"6.4","346.7306","3.1968"
"6.41","345.9303","3.201867"
"6.42","345.1435","3.206833"
"6.43","344.3297","3.2119"
"6.44","343.4841","3.216967"
"6.45","342.6226","3.2218"
"6.46","341.7508","3.226733"
"6.47","340.8448","3.2316"
"6.48","339.8681","3.236533"
"6.49","338.7944","3.241667"
"6.5","337.6476","3.2466"
"6.51","336.5024","3.251467"
"6.52","335.4319","3.2565"
"6.53","334.4647","3.261467"
"6.54","333.5746","3.266567"
"6.55","332.7195","3.271633"
"6.56","331.8914","3.2766"
"6.57","331.0943","3.281767"
"6.58","330.3329","3.286833"
"6.59","329.5978","3.291867"
"6.6","328.873","3.297067"
"6.61","328.145","3.301933"
"6.62","327.4035","3.306667"
"6.63","326.6279","3.3116"
"6.64","325.7744","3.316533"
"6.65","324.7897","3.321533"
"6.66","323.6612","3.3266"
"6.67","322.4277","3.3314"
"6.68","321.1419","3.336367"
"6.69","319.8488","3.3415"
"6.7","318.5765","3.346533"
"6.71","317.3192","3.351733"
"6.72","316.0485","3.356767"
"6.73","314.7554","3.3618"
"6.74","313.4592","3.367"
"6.75","312.1917","3.3719"
"6.76","310.9757","3.376767"
"6.77","309.8162","3.3818"
"6.78","308.6932","3.386733"
"6.79","307.5457","3.391733"
"6.8","306.3186","3.396667"
"6.81","305.0168","3.401467"
"6.82","303.6865","3.406533"
"6.83","302.3521","3.411567"
"6.84","301.0058","3.416467"
"6.85","299.6659","3.4215"
"6.86","298.3951","3.426433"
"6.87","297.2365","3.431467"
"6.88","296.1802","3.4366"
"6.89","295.1876","3.4416"
"6.9","294.2197","3.4467"
"6.91","293.235","3.4518"
"6.92","292.2209","3.4568"
"6.93","291.2132","3.4619"
"6.94","290.2587","3.466933"
"6.95","289.3686","3.471833"
"6.96","288.535","3.476833"
"6.97","287.7498","3.481633"
"6.98","286.9876","3.486533"
"6.99","286.2159","3.4916"
"7","285.4276","3.496467"
"7.01","284.6678","3.5013"
"7.02","283.9939","3.506367"
"7.03","283.4074","3.5114"
"7.04","282.8661","3.5165"
"7.05","282.3416","3.521567"
"7.06","281.841","3.526533"
"7.07","281.3649","3.5317"
"7.08","280.877","3.5368"
"7.09","280.335","3.5418"
"7.1","279.7206","3.546833"
"7.11","278.9998","3.551767"
"7.12","278.0906","3.556733"
"7.13","276.9645","3.561667"
"7.14","275.7072","3.566433"
"7.15","274.3387","3.571433"
"7.16","272.6841","3.5766"
"7.17","270.5892","3.581467"
"7.18","268.2122","3.586433"
"7.19","265.8868","3.5915"
"7.2","263.7839","3.596567"
"7.21","261.8607","3.6017"
"7.22","260.0638","3.606767"
"7.23","258.383","3.6118"
"7.24","256.7569","3.616867"
"7.25","255.0681","3.6218"
"7.26","253.2951","3.6268"
"7.27","251.5205","3.631833"
"7.28","249.78","3.6367"
"7.29","248.0388","3.6417"
"7.3","246.3174","3.646667"
"7.31","244.693","3.651467"
"7.32","243.1806","3.6565"
"7.33","241.739","3.661533"
"7.34","240.3498","3.6664"
"7.35","239.0202","3.671467"
"7.36","237.7748","3.6765"
"7.37","236.6527","3.6816"
"7.38","235.6831","3.686733"
"7.39","234.8725","3.691733"
"7.4","234.1898","3.696767"
"7.41","233.5827","3.701833"
"7.42","232.9922","3.706833"
"7.43","232.381","3.7119"
"7.44","231.7556","3.716933"
"7.45","231.1627","3.721767"
"7.46","230.6255","3.726733"
"7.47","230.1208","3.7316"
"7.48","229.6035","3.736533"
"7.49","229.0448","3.7416"
"7.5","228.4733","3.746533"
"7.51","227.925","3.751367"
"7.52","227.4076","3.756333"
"7.53","226.9046","3.761333"
"7.54","226.4245","3.766567"
"7.55","225.9898","3.771733"
"7.56","225.6179","3.7767"
"7.57","225.3071","3.7818"
"7.58","225.0409","3.7869"
"7.59","224.7977","3.791933"
"7.6","224.5561","3.797033"
"7.61","224.309","3.801933"
"7.62","224.061","3.806733"
"7.63","223.8115","3.811667"
"7.64","223.5492","3.816567"
"7.65","223.2552","3.821533"
"7.66","222.9047","3.8266"
"7.67","222.4946","3.831433"
"7.68","222.0511","3.836433"
"7.69","221.6133","3.841533"
"7.7","221.2087","3.846567"
"7.71","220.8598","3.851733"
"7.72","220.5698","3.856733"
"7.73","220.3385","3.861767"
"7.74","220.1374","3.866933"
"7.75","219.938","3.871833"
"7.76","219.7321","3.8768"
"7.77","219.5255","3.881933"
"7.78","219.3197","3.8868"
"7.79","219.0987","3.891733"
"7.8","218.8611","3.896633"
"7.81","218.6092","3.9015"
"7.82","218.335","3.9065"
"7.83","218.0195","3.9115"
"7.84","217.6611","3.916367"
"7.85","217.2756","3.921433"
"7.86","216.8624","3.926467"
"7.87","216.3943","3.931533"
"7.88","215.8237","3.9367"
"7.89","215.1044","3.941667"
"7.9","214.1921","3.946733"
"7.91","212.9531","3.951867"
"7.92","211.1626","3.956833"
"7.93","208.7768","3.9619"
"7.94","206.1733","3.966933"
"7.95","203.8701","3.971767"
"7.96","202.0685","3.976733"
"7.97","200.6332","3.981667"
"7.98","199.3688","3.986533"
"7.99","198.1537","3.991533"
"8","196.9274","3.9964"
"8.01","195.6415","4.0013"
"8.02","194.2968","4.006467"
"8.03","192.9514","4.0115"
"8.04","191.656","4.0166"
"8.05","190.4202","4.021667"
"8.06","189.2519","4.026667"
"8.07","188.1623","4.031767"
"8.08","187.1721","4.036867"
"8.09","186.3003","4.041867"
"8.1","185.5493","4.046933"
"8.11","184.8984","4.051833"
"8.12","184.3206","4.056734"
"8.13","183.8017","4.061666"
"8.14","183.3272","4.066467"
"8.15","182.8806","4.0714"
"8.16","182.4466","4.076533"
"8.17","182.0222","4.081367"
"8.18","181.605","4.086367"
"8.19","181.1934","4.091467"
"8.2","180.7888","4.096533"
"8.21","180.3931","4.101667"
"8.22","180.0068","4.106767"
"8.23","179.6238","4.111767"
"8.24","179.2439","4.116867"
"8.25","178.8656","4.1218"
"8.26","178.4905","4.126767"
"8.27","178.1257","4.131867"
"8.28","177.7927","4.1368"
"8.29","177.4947","4.1417"
"8.3","177.2277","4.146567"
"8.31","176.998","4.1514"
"8.32","176.8017","4.156466"
"8.33","176.6268","4.1615"
"8.34","176.4623","4.166433"
"8.35","176.3153","4.171433"
"8.36","176.1953","4.176434"
"8.37","176.0968","4.1815"
"8.38","175.9895","4.1867"
"8.39","175.8226","4.1917"
"8.4","175.5476","4.1967"
"8.41","175.1073","4.2018"
"8.42","174.4954","4.206833"
"8.43","173.7976","4.211934"
"8.44","173.1491","4.216933"
"8.45","172.6103","4.221767"
"8.46","172.1144","4.226767"
"8.47","171.5104","4.231667"
"8.48","170.6568","4.236533"
"8.49","169.522","4.2416"
"8.5","168.2361","4.246533"
"8.51","166.9947","4.251367"
"8.52","165.9059","4.256367"
"8.53","164.9626","4.2614"
"8.54","164.1122","4.2666"
"8.55","163.3016","4.271733"
"8.56","162.4934","4.276667"
"8.57","161.6303","4.281767"
"8.58","160.5582","4.2868"
"8.59","159.1158","4.291833"
"8.6","157.4103","4.296967"
"8.61","155.8121","4.301867"
"8.62","154.5771","4.306767"
"8.63","153.6512","4.3117"
"8.64","152.8597","4.316567"
"8.65","152.0888","4.321533"
"8.66","151.3036","4.326567"
"8.67","150.5367","4.3314"
"8.68","149.8453","4.336433"
"8.69","149.2373","4.341533"
"8.7","148.6778","4.346567"
"8.71","148.1358","4.3517"
"8.72","147.6057","4.3567"
"8.73","147.0947","4.361733"
"8.74","146.5893","4.3669"
"8.75","146.0918","4.371767"
"8.76","145.6253","4.376767"
"8.77","145.2176","4.3819"
"8.78","144.8607","4.386767"
"8.79","144.5293","4.391733"
"8.8","144.2146","4.396667"
"8.81","143.9198","4.401433"
"8.82","143.6329","4.406533"
"8.83","143.3357","4.411567"
"8.84","143.0043","4.4164"
"8.85","142.622","4.4215"
"8.86","142.1706","4.426533"
"8.87","141.6556","4.4316"
"8.88","141.0882","4.4367"
"8.89","140.4842","4.4417"
"8.9","139.8603","4.4468"
"8.91","139.2317","4.4519"
"8.92","138.6118","4.456867"
"8.93","138.0054","4.461967"
"8.94","137.3776","4.466967"
"8.95","136.6655","4.4718"
"8.96","135.8676","4.4768"
"8.97","135.0768","4.481667"
"8.98","134.3981","4.486533"
"8.99","133.853","4.491567"
"9","133.4111","4.496467"
"9.01","133.0312","4.5013"
"9.02","132.6863","4.5064"
"9.03","132.3676","4.5115"
"9.04","132.0736","4.5166"
"9.05","131.8121","4.521633"
"9.06","131.5919","4.526567"
"9.07","131.4092","4.531767"
"9.08","131.2343","4.5369"
"9.09","131.0372","4.541934"
"9.1","130.8139","4.546967"
"9.11","130.562","4.551833"
"9.12","130.2783","4.556734"
"9.13","129.9731","4.561733"
"9.14","129.679","4.566534"
"9.15","129.4096","4.571467"
"9.16","129.1617","4.576533"
"9.17","128.9272","4.581367"
"9.18","128.7087","4.5864"
"9.19","128.5036","4.5915"
"9.2","128.2994","4.5965"
"9.21","128.0872","4.6016"
"9.22","127.8623","4.6066"
"9.23","127.5984","4.611667"
"9.24","127.2019","4.616833"
"9.25","126.4707","4.6218"
"9.26","125.196","4.6268"
"9.27","123.3967","4.631867"
"9.28","121.3773","4.636767"
"9.29","119.4557","4.6417"
"9.3","117.7009","4.646633"
"9.31","115.9032","4.651433"
"9.32","113.7765","4.656466"
"9.33","111.3844","4.661533"
"9.34","109.2021","4.666433"
"9.35","107.5753","4.671467"
"9.36","106.4221","4.6765"
"9.37","105.5169","4.681533"
"9.38","104.75","4.686666"
"9.39","104.0896","4.691633"
"9.4","103.5126","4.696733"
"9.41","103","4.701833"
"9.42","102.5367","4.706867"
"9.43","102.1012","4.711867"
"9.44","101.6641","4.716834"
"9.45","101.2055","4.721734"
"9.46","100.7255","4.7267"
"9.47","100.2351","4.731567"
"9.48","99.75354","4.736467"
"9.49","99.31008","4.741567"
"9.5","98.9151","4.7465"
"9.51","98.55668","4.751367"
"9.52","98.21574","4.756367"
"9.53","97.88116","4.761367"
"9.54","97.53783","4.766567"
"9.55","97.17862","4.7717"
"9.56","96.81384","4.776633"
"9.57","96.46813","4.781734"
"9.58","96.14468","4.7868"
"9.59","95.8085","4.7919"
"9.6","95.41353","4.796967"
"9.61","94.9494","4.801867"
"9.62","94.43283","4.806767"
"9.63","93.88129","4.811666"
"9.64","93.29796","4.8165"
"9.65","92.70509","4.8215"
"9.66","92.12256","4.826533"
"9.67","91.54478","4.831433"
"9.68","90.92093","4.836433"
"9.69","90.15639","4.841533"
"9.7","89.18524","4.846567"
"9.71","88.12586","4.851767"
"9.72","87.20477","4.856767"
"9.73","86.50938","4.861767"
"9.74","85.95467","4.866933"
"9.75","85.4524","4.871833"
"9.76","84.97318","4.8768"
"9.77","84.51224","4.8819"
"9.78","84.05527","4.8868"
"9.79","83.57286","4.8917"
"9.8","83.05391","4.896567"
"9.81","82.53654","4.901433"
"9.82","82.07321","4.906533"
"9.83","81.67982","4.911567"
"9.84","81.34763","4.9164"
"9.85","81.0647","4.921467"
"9.86","80.8088","4.926434"
"9.87","80.57038","4.931467"
"9.88","80.34785","4.936634"
"9.89","80.13963","4.941667"
"9.9","79.94652","4.946767"
"9.91","79.77486","4.9519"
"9.92","79.62306","4.956867"
"9.93","79.4824","4.9619"
"9.94","79.33537","4.966933"
"9.95","79.1796","4.971833"
"9.96","79.02464","4.9768"
"9.97","78.87363","4.981633"
"9.98","78.70912","4.986567"
"9.99","78.49852","4.991633"
"10","78.22037","4.996433"
"10.01","77.90884","5.0013"
"10.02","77.62273","5.0064"
"10.03","77.39067","5.011467"
"10.04","77.19994","5.016567"
"10.05","77.03622","5.0217"
"10.06","76.8876","5.026633"
"10.07","76.75092","5.031767"
"10.08","76.62138","5.036867"
"10.09","76.49342","5.0419"
"10.1","76.36308","5.047"
"10.11","76.22321","5.0519"
"10.12","76.07858","5.0568"
"10.13","75.9236","5.061767"
"10.14","75.74558","5.0666"
"10.15","75.54134","5.071533"
"10.16","75.32676","5.0766"
"10.17","75.0955","5.081433"
"10.18","74.83006","5.0864"
"10.19","74.53123","5.091533"
"10.2","74.22606","5.096533"
"10.21","73.93758","5.101634"
"10.22","73.66339","5.106733"
"10.23","73.39796","5.1118"
"10.24","73.1349","5.1169"
"10.25","72.87502","5.121867"
"10.26","72.6223","5.1268"
"10.27","72.37116","5.131834"
"10.28","72.11208","5.136734"
"10.29","71.83075","5.141667"
"10.3","71.50809","5.146533"
"10.31","71.12424","5.151433"
"10.32","70.63786","5.156467"
"10.33","70.00685","5.1615"
"10.34","69.24311","5.1664"
"10.35","68.41818","5.171534"
"10.36","67.59802","5.1765"
"10.37","66.80647","5.1816"
"10.38","66.03241","5.186733"
"10.39","65.26152","5.191633"
"10.4","64.50574","5.196667"
"10.41","63.7873","5.2018"
"10.42","63.11019","5.2068"
"10.43","62.45852","5.211833"
"10.44","61.81638","5.2169"
"10.45","61.16549","5.221767"
"10.46","60.48123","5.226767"
"10.47","59.71432","5.2316"
"10.48","58.80038","5.236533"
"10.49","57.73942","5.2416"
"10.5","56.66018","5.2465"
"10.51","55.75101","5.251333"
"10.52","55.12873","5.256333"
"10.53","54.76952","5.261367"
"10.54","54.48182","5.266567"
"10.55","53.7308","5.2717"
"10.56","51.11535","5.276667"
"10.57","44.85528","5.281767"
"10.58","35.50132","5.286867"
"10.59","26.80461","5.2919"
"10.6","21.85742","5.297"
"10.61","20.23458","5.301867"
"10.62","20.01127","5.306767"
"10.63","20.10107","5.311733"
"10.64","20.13683","5.316567"
"10.65","20.06531","5.3215"
"10.66","20.03988","5.326533"
"10.67","20.12094","5.331367"
"10.68","20.1877","5.3364"
"10.69","20.16385","5.3415"
"10.7","20.12332","5.346533"
"10.71","20.12014","5.351634"
"10.72","20.11617","5.356633"
"10.73","20.0963","5.3617"
"10.74","20.10345","5.3669"
"10.75","20.13842","5.3718"
"10.76","20.16147","5.376767"
"10.77","20.18929","5.381867"
"10.78","20.26558","5.386734"
"10.79","20.36095","5.391634"
"10.8","20.40386","5.3966"
"10.81","20.41101","5.401433"
"10.82","20.45313","5.4065"
"10.83","20.5183","5.411567"
"10.84","20.5485","5.4164"
"10.85","20.55089","5.421433"
"10.86","20.58426","5.4265"
"10.87","20.64069","5.431567"
"10.88","20.66533","5.436634"
"10.89","20.66533","5.441633"
"10.9","20.68917","5.446733"
"10.91","20.73368","5.451867"
"10.92","20.75434","5.456867"
"10.93","20.75593","5.461934"
"10.94","20.78454","5.466967"
"10.95","20.83937","5.471833"
"10.96","20.86957","5.4768"
"10.97","20.85924","5.481633"
"10.98","20.84494","5.486533"
"10.99","20.84255","5.491633"
"11","20.81156","5.496467"
"11.01","20.69632","5.501333"
"11.02","20.45711","5.506433"
"11.03","20.12094","5.511467"
"11.04","19.77046","5.516634"
"11.05","19.44304","5.521733"
"11.06","19.11322","5.526633"
"11.07","18.79692","5.531767"
"11.08","18.57122","5.5369"
"11.09","18.45757","5.541867"
"11.1","18.42419","5.546933"
"11.11","18.42578","5.551834"
"11.12","18.42419","5.556767"
"11.13","18.40433","5.561667"
"11.14","18.38207","5.5665"
"11.15","18.37492","5.571467"
"11.16","18.36618","5.5766"
"11.17","18.3479","5.581433"
"11.18","18.33518","5.5864"
"11.19","18.34234","5.5915"
"11.2","18.35028","5.5965"
"11.21","18.34154","5.601733"
"11.22","18.3328","5.606767"
"11.23","18.33757","5.6117"
"11.24","18.34393","5.616867"
"11.25","18.34154","5.621867"
"11.26","18.34551","5.626867"
"11.27","18.3622","5.631933"
"11.28","18.37333","5.636767"
"11.29","18.36856","5.6417"
"11.3","18.36697","5.646634"
"11.31","18.38207","5.651467"
"11.32","18.3932","5.6565"
"11.33","18.39081","5.661533"
"11.34","18.3932","5.6664"
"11.35","18.41466","5.671467"
"11.36","18.42817","5.6765"
"11.37","18.41942","5.681567"
"11.38","18.40909","5.686733"
"11.39","18.41784","5.691667"
"11.4","18.42896","5.696733"
"11.41","18.4226","5.701833"
"11.42","18.41704","5.706867"
"11.43","18.42896","5.711934"
"11.44","18.43929","5.716967"
"11.45","18.43055","5.7219"
"11.46","18.41784","5.726833"
"11.47","18.42022","5.7316"
"11.48","18.42578","5.7365"
"11.49","18.42419","5.7416"
"11.5","18.42658","5.746567"
"11.51","18.43929","5.751433"
"11.52","18.44645","5.756467"
"11.53","18.4377","5.761467"
"11.54","18.42896","5.766533"
"11.55","18.42896","5.7716"
"11.56","18.42896","5.776534"
"11.57","18.42022","5.781633"
"11.58","18.41307","5.7867"
"11.59","18.41784","5.791767"
"11.6","18.42817","5.7969"
"11.61","18.42896","5.801867"
"11.62","18.42181","5.806767"
"11.63","18.41068","5.8117"
"11.64","18.39956","5.816534"
"11.65","18.39081","5.821467"
"11.66","18.38923","5.8265"
"11.67","18.39717","5.831367"
"11.68","18.39797","5.8364"
"11.69","18.38843","5.8415"
"11.7","18.37572","5.846567"
"11.71","18.37015","5.8517"
"11.72","18.37015","5.856667"
"11.73","18.36856","5.861667"
"11.74","18.36856","5.8669"
"11.75","18.37015","5.871833"
"11.76","18.37492","5.876767"
"11.77","18.38207","5.881867"
"11.78","18.38843","5.8868"
"11.79","18.3924","5.891667"
"11.8","18.40035","5.896567"
"11.81","18.41307","5.901433"
"11.82","18.41942","5.9065"
"11.83","18.41545","5.911533"
"11.84","18.40909","5.916367"
"11.85","18.41068","5.9214"
"11.86","18.41466","5.926434"
"11.87","18.41784","5.931567"
"11.88","18.42658","5.936733"
"11.89","18.43532","5.941667"
"11.9","18.44247","5.946733"
"11.91","18.44645","5.951867"
"11.92","18.44486","5.956833"
"11.93","18.4377","5.961934"
"11.94","18.43055","5.966933"
"11.95","18.42817","5.9718"
"11.96","18.43055","5.9767"
"11.97","18.42896","5.981567"
"11.98","18.41942","5.986467"
"11.99","18.40671","5.991567"
"12","18.40433","5.9964"
"12.01","18.40909","6.001234"
"12.02","18.41307","6.0064"
"12.03","18.41148","6.0115"
"12.04","18.41148","6.016634"
"12.05","18.42022","6.021667"
"12.06","18.43134","6.026567"
"12.07","18.43532","6.031734"
"12.08","18.43055","6.036867"
"12.09","18.4226","6.041867"
"12.1","18.41784","6.046967"
"12.11","18.41545","6.051933"
"12.12","18.41307","6.0568"
"12.13","18.40671","6.0617"
"12.14","18.39479","6.0665"
"12.15","18.38366","6.071434"
"12.16","18.37572","6.076533"
"12.17","18.37015","6.081367"
"12.18","18.36618","6.086367"
"12.19","18.36459","6.091467"
"12.2","18.36459","6.096567"
"12.21","18.36618","6.101733"
"12.22","18.37492","6.106767"
"12.23","18.38446","6.1118"
"12.24","18.3924","6.1169"
"12.25","18.3932","6.121833"
"12.26","18.39479","6.1268"
"12.27","18.3932","6.131834"
"12.28","18.38843","6.136767"
"12.29","18.38366","6.1417"
"12.3","18.3924","6.146634"
"12.31","18.41148","6.1515"
"12.32","18.42817","6.156567"
"12.33","18.43373","6.161567"
"12.34","18.43611","6.166433"
"12.35","18.43929","6.171467"
"12.36","18.43929","6.176533"
"12.37","18.43611","6.1816"
"12.38","18.43929","6.186767"
"12.39","18.44724","6.1917"
"12.4","18.44883","6.196733"
"12.41","18.44247","6.201833"
"12.42","18.4377","6.206833"
"12.43","18.44009","6.211867"
"12.44","18.44406","6.2169"
"12.45","18.44168","6.2218"
"12.46","18.43532","6.226767"
"12.47","18.43373","6.2316"
"12.48","18.43929","6.2365"
"12.49","18.44009","6.241633"
"12.5","18.4377","6.246567"
"12.51","18.43532","6.2514"
"12.52","18.43294","6.256433"
"12.53","18.42817","6.261434"
"12.54","18.42419","6.266533"
"12.55","18.42658","6.271634"
"12.56","18.43294","6.2766"
"12.57","18.43373","6.281734"
"12.58","18.42658","6.286833"
"12.59","18.41704","6.2919"
"12.6","18.41068","6.297033"
"12.61","18.41068","6.3019"
"12.62","18.41148","6.3068"
"12.63","18.41148","6.311767"
"12.64","18.4083","6.316567"
"12.65","18.40035","6.321467"
"12.66","18.3932","6.326533"
"12.67","18.38843","6.3314"
"12.68","18.38843","6.336367"
"12.69","18.39081","6.341434"
"12.7","18.3924","6.3465"
"12.71","18.39558","6.351733"
"12.72","18.40035","6.3568"
"12.73","18.39717","6.3618"
"12.74","18.38446","6.366967"
"12.75","18.38207","6.371933"
"12.76","18.38923","6.376833"
"12.77","18.39479","6.381834"
"12.78","18.38684","6.386734"
"12.79","18.38128","6.391667"
"12.8","18.38366","6.396567"
"12.81","18.38843","6.401433"
"12.82","18.39558","6.406467"
"12.83","18.40353","6.4115"
"12.84","18.40433","6.4163"
"12.85","18.39956","6.4214"
"12.86","18.39558","6.426434"
"12.87","18.40035","6.4315"
"12.88","18.41068","6.436634"
"12.89","18.41545","6.4416"
"12.9","18.41545","6.4467"
"12.91","18.41942","6.451833"
"12.92","18.42658","6.4568"
"12.93","18.42817","6.4619"
"12.94","18.42658","6.466933"
"12.95","18.42658","6.4718"
"12.96","18.42896","6.4768"
"12.97","18.42896","6.481667"
"12.98","18.42817","6.4865"
"12.99","18.42817","6.491633"
"13","18.43055","6.496467"
"13.01","18.43373","6.501267"
"13.02","18.43373","6.506367"
"13.03","18.43134","6.511333"
"13.04","18.42896","6.5141"
"13.05","18.42419","6.5149"