File: degradation_testing/tensile_testing/PLA/PLA_Water/PLA-W-1.csv
"1 _ 1",,
"Time","Force","Stroke"
"sec","N","mm"
"0","0.8718173","0.0001"
"0.01","0.8718173","0.0021"
"0.02","0.8765857","0.006366667"
"0.03","0.9592374","0.0113"
"0.04","1.380444","0.01636667"
"0.05","2.597968","0.02126667"
"0.06","4.940828","0.02616667"
"0.07","8.278687","0.03126667"
"0.08","12.16014","0.03636667"
"0.09","16.19657","0.04146667"
"0.1","20.24333","0.04656667"
"0.11","24.28929","0.0515"
"0.12","28.34479","0.05663333"
"0.13","32.38519","0.06173334"
"0.14","36.37791","0.06676666"
"0.15","40.2991","0.0719"
"0.16","44.14399","0.07686666"
"0.17","47.88558","0.08173333"
"0.18","51.41894","0.08673333"
"0.19","54.47547","0.09156667"
"0.2","56.66892","0.0965"
"0.21","57.82684","0.1016"
"0.22","58.22261","0.1064333"
"0.23","58.30288","0.1113667"
"0.24","58.33387","0.1164333"
"0.25","58.35931","0.1214667"
"0.26","58.36566","0.1266333"
"0.27","58.36089","0.1316667"
"0.28","58.35851","0.1366333"
"0.29","58.35851","0.1418"
"0.3","58.36407","0.1468333"
"0.31","58.3752","0.1518333"
"0.32","58.38076","0.1569333"
"0.33","58.37679","0.1618333"
"0.34","58.37202","0.1668333"
"0.35","58.36407","0.1717"
"0.36","58.35851","0.1764667"
"0.37","58.36089","0.1814667"
"0.38","58.36328","0.1865333"
"0.39","58.35851","0.1914"
"0.4","58.35612","0.1964667"
"0.41","58.36169","0.2015333"
"0.42","58.36328","0.2065667"
"0.43","58.36725","0.2117"
"0.44","58.37679","0.2167"
"0.45","58.38394","0.2217"
"0.46","58.37917","0.2268333"
"0.47","58.36566","0.2318"
"0.48","58.35056","0.2367667"
"0.49","58.345","0.2418"
"0.5","58.34739","0.2466667"
"0.51","58.34818","0.2516667"
"0.52","58.34341","0.2565667"
"0.53","58.34103","0.2614333"
"0.54","58.34182","0.2665333"
"0.55","58.34818","0.2714667"
"0.56","58.36169","0.2763667"
"0.57","58.37202","0.2815"
"0.58","58.36964","0.2865333"
"0.59","58.36328","0.2916333"
"0.6","58.36964","0.2967667"
"0.61","58.37917","0.3016667"
"0.62","58.37838","0.3067333"
"0.63","58.37281","0.3118333"
"0.64","58.38633","0.3169"
"0.65","58.42527","0.322"
"0.66","58.46341","0.3269333"
"0.67","58.48408","0.3317667"
"0.68","58.4952","0.3367"
"0.69","58.50871","0.3415"
"0.7","58.52222","0.3465"
"0.71","58.53097","0.3516333"
"0.72","58.53335","0.3565"
"0.73","58.5262","0.3614"
"0.74","58.51507","0.3664"
"0.75","58.5103","0.3714667"
"0.76","58.51348","0.3766333"
"0.77","58.51746","0.3817"
"0.78","58.51984","0.3867"
"0.79","58.51746","0.3919"
"0.8","58.5103","0.3969333"
"0.81","58.49997","0.402"
"0.82","58.49997","0.407"
"0.83","58.50792","0.4118667"
"0.84","58.51666","0.4168"
"0.85","58.5262","0.4216667"
"0.86","58.54607","0.4264667"
"0.87","58.57547","0.4315"
"0.88","58.60646","0.4365"
"0.89","58.63349","0.4413667"
"0.9","58.66687","0.4464"
"0.91","58.71375","0.4514667"
"0.92","58.8115","0.4565667"
"0.93","59.10873","0.4617"
"0.94","59.89075","0.4667333"
"0.95","61.40947","0.4718333"
"0.96","63.66968","0.4769667"
"0.97","66.4266","0.4818"
"0.98","69.40762","0.4868"
"0.99","72.47925","0.4918"
"1","75.58823","0.4967333"
"1.01","78.66383","0.5017"
"1.02","81.62101","0.5065333"
"1.03","84.4272","0.5114334"
"1.04","87.09589","0.5165667"
"1.05","89.70579","0.5215333"
"1.06","92.37448","0.5264333"
"1.07","95.2212","0.5315"
"1.08","98.3119","0.5365"
"1.09","101.6561","0.5416"
"1.1","105.2229","0.5467333"
"1.11","108.9573","0.5516667"
"1.12","112.803","0.5567333"
"1.13","116.7035","0.5618"
"1.14","120.6144","0.5667667"
"1.15","124.4974","0.5719"
"1.16","128.3352","0.5769"
"1.17","132.1292","0.5817667"
"1.18","135.8898","0.5867333"
"1.19","139.6283","0.5915667"
"1.2","143.3587","0.5965334"
"1.21","147.0812","0.6016333"
"1.22","150.787","0.6063667"
"1.23","154.4825","0.6112334"
"1.24","158.1701","0.6163334"
"1.25","161.8369","0.6214"
"1.26","165.4665","0.6266"
"1.27","169.0833","0.6316"
"1.28","172.7573","0.6365667"
"1.29","176.518","0.6417333"
"1.3","180.3176","0.6467667"
"1.31","184.0917","0.6518334"
"1.32","187.8238","0.6569"
"1.33","191.5447","0.6618"
"1.34","195.272","0.6667333"
"1.35","198.9953","0.6716"
"1.36","202.6868","0.6764"
"1.37","206.3219","0.6813667"
"1.38","209.8894","0.6864"
"1.39","213.4069","0.6912667"
"1.4","216.8989","0.6963333"
"1.41","220.3981","0.7013667"
"1.42","223.9124","0.7064667"
"1.43","227.437","0.7117"
"1.44","230.9728","0.7167333"
"1.45","234.5379","0.7218"
"1.46","238.1341","0.7269667"
"1.47","241.7453","0.7318667"
"1.48","245.3502","0.7368333"
"1.49","248.9305","0.7418333"
"1.5","252.4734","0.7467667"
"1.51","255.9646","0.7517"
"1.52","259.4042","0.7565667"
"1.53","262.8008","0.7614334"
"1.54","266.1562","0.7665333"
"1.55","269.4607","0.7715"
"1.56","272.7175","0.7764"
"1.57","275.9576","0.7814667"
"1.58","279.2136","0.7864667"
"1.59","282.4807","0.7916667"
"1.6","285.7415","0.7968"
"1.61","289.0078","0.8017333"
"1.62","292.3004","0.8068"
"1.63","295.6112","0.8118333"
"1.64","298.8974","0.8168"
"1.65","302.132","0.8219333"
"1.66","305.3156","0.8268667"
"1.67","308.4651","0.8318"
"1.68","311.5829","0.8367667"
"1.69","314.6672","0.8415667"
"1.7","317.7071","0.8465334"
"1.71","320.6897","0.8516334"
"1.72","323.6047","0.8565"
"1.73","326.4586","0.8613334"
"1.74","329.2807","0.8663"
"1.75","332.0901","0.8713"
"1.76","334.8589","0.8765"
"1.77","337.5618","0.8816"
"1.78","340.2305","0.8865333"
"1.79","342.9119","0.8917333"
"1.8","345.6362","0.8967667"
"1.81","348.4066","0.9018667"
"1.82","351.1985","0.907"
"1.83","353.9785","0.9118"
"1.84","356.7227","0.9166667"
"1.85","359.416","0.9216334"
"1.86","362.0418","0.9264667"
"1.87","364.5857","0.9315"
"1.88","367.0645","0.9365333"
"1.89","369.5083","0.9413667"
"1.9","371.9385","0.9465"
"1.91","374.364","0.9515667"
"1.92","376.7753","0.9565667"
"1.93","379.1674","0.9617333"
"1.94","381.5444","0.9667333"
"1.95","383.9127","0.9718"
"1.96","386.2755","0.9769667"
"1.97","388.6342","0.9818333"
"1.98","390.9818","0.9868"
"1.99","393.3112","0.9918"
"2","395.6183","0.9967"
"2.01","397.8976","1.001667"
"2.02","400.149","1.006533"
"2.03","402.3743","1.011433"
"2.04","404.5757","1.016567"
"2.05","406.75","1.021567"
"2.06","408.9077","1.026467"
"2.07","411.0638","1.0316"
"2.08","413.2326","1.036633"
"2.09","415.4062","1.041667"
"2.1","417.5735","1.046767"
"2.11","419.7407","1.051667"
"2.12","421.919","1.0567"
"2.13","424.1013","1.061767"
"2.14","426.2662","1.066767"
"2.15","428.408","1.071933"
"2.16","430.5371","1.076933"
"2.17","432.6733","1.081833"
"2.18","434.8199","1.0868"
"2.19","436.9585","1.091633"
"2.2","439.0717","1.096567"
"2.21","441.1467","1.101633"
"2.22","443.1891","1.1064"
"2.23","445.2308","1.111333"
"2.24","447.2892","1.116367"
"2.25","449.357","1.1214"
"2.26","451.4138","1.126567"
"2.27","453.4729","1.131567"
"2.28","455.5639","1.136567"
"2.29","457.6906","1.141767"
"2.3","459.8307","1.146867"
"2.31","461.967","1.1519"
"2.32","464.0984","1.156933"
"2.33","466.2299","1.1618"
"2.34","468.3534","1.1667"
"2.35","470.4436","1.1716"
"2.36","472.4828","1.176467"
"2.37","474.4713","1.1815"
"2.38","476.4223","1.1865"
"2.39","478.3551","1.191333"
"2.4","480.2855","1.1964"
"2.41","482.2191","1.2014"
"2.42","484.1487","1.2065"
"2.43","486.0671","1.2117"
"2.44","487.9944","1.2167"
"2.45","489.9542","1.221767"
"2.46","491.9457","1.2269"
"2.47","493.9516","1.231767"
"2.48","495.9464","1.236767"
"2.49","497.9197","1.241767"
"2.5","499.8692","1.2466"
"2.51","501.7948","1.251567"
"2.52","503.703","1.256433"
"2.53","505.5984","1.2614"
"2.54","507.4795","1.2665"
"2.55","509.3495","1.2715"
"2.56","511.2187","1.2764"
"2.57","513.0975","1.2815"
"2.58","514.9865","1.2865"
"2.59","516.8812","1.291567"
"2.6","518.7694","1.2967"
"2.61","520.6553","1.301667"
"2.62","522.5475","1.3067"
"2.63","524.4517","1.311733"
"2.64","526.3622","1.316767"
"2.65","528.2545","1.321867"
"2.66","530.1205","1.3268"
"2.67","531.9913","1.3317"
"2.68","533.8884","1.336733"
"2.69","535.7909","1.3416"
"2.7","537.6649","1.3466"
"2.71","539.4999","1.3517"
"2.72","541.304","1.356533"
"2.73","543.0802","1.361467"
"2.74","544.8301","1.366367"
"2.75","546.5499","1.3714"
"2.76","548.2189","1.3766"
"2.77","549.8266","1.381667"
"2.78","551.3986","1.386667"
"2.79","552.9722","1.391833"
"2.8","554.5505","1.396833"
"2.81","556.0931","1.401933"
"2.82","557.5665","1.407"
"2.83","558.9779","1.411767"
"2.84","560.3512","1.4167"
"2.85","561.6848","1.4216"
"2.86","562.9603","1.426433"
"2.87","564.1635","1.431533"
"2.88","565.3008","1.436567"
"2.89","566.3888","1.441367"
"2.9","567.4402","1.446433"
"2.91","568.4598","1.451467"
"2.92","569.4421","1.456533"
"2.93","570.3704","1.4618"
"2.94","571.2533","1.466767"
"2.95","572.1116","1.471867"
"2.96","572.9525","1.476967"
"2.97","573.7639","1.481767"
"2.98","574.5252","1.4867"
"2.99","575.2174","1.491767"
"3","575.8167","1.4967"
"3.01","576.3054","1.501667"
"3.02","576.7067","1.5065"
"3.03","577.0516","1.511367"
"3.04","577.3298","1.516467"
"3.05","577.5134","1.521467"
"3.06","577.604","1.5264"
"3.07","577.6318","1.531533"
"3.08","577.6207","1.5365"
"3.09","577.5626","1.541567"
"3.1","577.457","1.546667"
"3.11","577.3083","1.551633"
"3.12","577.116","1.556767"
"3.13","576.8625","1.561867"
"3.14","576.5351","1.566867"
"3.15","576.1242","1.571967"
"3.16","575.6267","1.576967"
"3.17","575.0275","1.581867"
"3.18","574.3051","1.586867"
"3.19","573.4308","1.591667"
"3.2","572.385","1.5966"
"3.21","571.1619","1.6017"
"3.22","569.7679","1.606467"
"3.23","568.2214","1.6114"
"3.24","566.5557","1.616433"
"3.25","564.7985","1.6214"
"3.26","562.9659","1.6266"
"3.27","561.0744","1.631633"
"3.28","559.1631","1.636567"
"3.29","557.2415","1.641767"
"3.3","555.3015","1.646867"
"3.31","553.3314","1.651967"
"3.32","551.343","1.657"
"3.33","549.3601","1.661833"
"3.34","547.3876","1.666733"
"3.35","545.4064","1.671633"
"3.36","543.3901","1.6765"
"3.37","541.335","1.681533"
"3.38","539.2711","1.686567"
"3.39","537.2437","1.6914"
"3.4","535.2839","1.696433"
"3.41","533.4004","1.7015"
"3.42","531.5677","1.706567"
"3.43","529.7645","1.711767"
"3.44","528.0081","1.716767"
"3.45","526.3329","1.721867"
"3.46","524.7299","1.726967"
"3.47","523.1746","1.7318"
"3.48","521.6567","1.7368"
"3.49","520.1721","1.741767"
"3.5","518.7018","1.746633"
"3.51","517.2197","1.751633"
"3.52","515.7264","1.756533"
"3.53","514.2506","1.761433"
"3.54","512.8034","1.7665"
"3.55","511.3784","1.771467"
"3.56","509.9638","1.776433"
"3.57","508.5715","1.7815"
"3.58","507.2101","1.7865"
"3.59","505.8805","1.791633"
"3.6","504.5732","1.796733"
"3.61","503.2929","1.801667"
"3.62","502.0491","1.806767"
"3.63","500.8403","1.811833"
"3.64","499.6459","1.8169"
"3.65","498.4435","1.821967"
"3.66","497.2394","1.826867"
"3.67","496.0378","1.831767"
"3.68","494.8298","1.836733"
"3.69","493.6083","1.841567"
"3.7","492.3749","1.846533"
"3.71","491.1367","1.8516"
"3.72","489.9104","1.856467"
"3.73","488.7088","1.8614"
"3.74","487.5445","1.866433"
"3.75","486.4168","1.871367"
"3.76","485.3034","1.876467"
"3.77","484.1868","1.881533"
"3.78","483.0766","1.886533"
"3.79","481.9822","1.891733"
"3.8","480.9094","1.896833"
"3.81","479.8508","1.901933"
"3.82","478.8049","1.9071"
"3.83","477.771","1.911933"
"3.84","476.745","1.9167"
"3.85","475.7174","1.9216"
"3.86","474.6604","1.9264"
"3.87","473.5398","1.9315"
"3.88","472.3581","1.936533"
"3.89","471.17","1.9414"
"3.9","470.0287","1.946467"
"3.91","468.9455","1.9515"
"3.92","467.8949","1.9566"
"3.93","466.8538","1.961733"
"3.94","465.8278","1.9667"
"3.95","464.8256","1.971833"
"3.96","463.8489","1.976967"
"3.97","462.8873","1.981833"
"3.98","461.94","1.986833"
"3.99","461.0062","1.991867"
"4","460.0724","1.996733"
"4.01","459.1179","2.001667"
"4.02","458.142","2.006533"
"4.03","457.1581","2.0114"
"4.04","456.1623","2.016567"
"4.05","455.1498","2.021567"
"4.06","454.131","2.026533"
"4.07","453.1407","2.031667"
"4.08","452.1998","2.036533"
"4.09","451.2922","2.041567"
"4.1","450.3965","2.046667"
"4.11","449.5096","2.051567"
"4.12","448.6378","2.056733"
"4.13","447.7874","2.0618"
"4.14","446.9609","2.0668"
"4.15","446.1606","2.071933"
"4.16","445.3826","2.0769"
"4.17","444.6181","2.081767"
"4.18","443.8575","2.086733"
"4.19","443.093","2.0915"
"4.2","442.3086","2.0965"
"4.21","441.494","2.1016"
"4.22","440.6603","2.1064"
"4.23","439.8401","2.111333"
"4.24","439.0581","2.116333"
"4.25","438.3095","2.1214"
"4.26","437.5728","2.1266"
"4.27","436.8488","2.131633"
"4.28","436.1661","2.1366"
"4.29","435.5311","2.141833"
"4.3","434.924","2.146867"
"4.31","434.316","2.151933"
"4.32","433.7033","2.156967"
"4.33","433.0945","2.1618"
"4.34","432.4842","2.166733"
"4.35","431.8555","2.171667"
"4.36","431.1999","2.176467"
"4.37","430.5172","2.181533"
"4.38","429.8131","2.186567"
"4.39","429.0986","2.1914"
"4.4","428.3945","2.196467"
"4.41","427.7198","2.2015"
"4.42","427.0689","2.2066"
"4.43","426.422","2.2118"
"4.44","425.7822","2.2168"
"4.45","425.1758","2.221833"
"4.46","424.6132","2.2269"
"4.47","424.0743","2.2318"
"4.48","423.5331","2.236833"
"4.49","422.9713","2.2419"
"4.5","422.3871","2.246767"
"4.51","421.7943","2.2517"
"4.52","421.2022","2.256567"
"4.53","420.6101","2.261467"
"4.54","420.0037","2.2666"
"4.55","419.3767","2.271567"
"4.56","418.7369","2.276433"
"4.57","418.1083","2.2815"
"4.58","417.5083","2.286533"
"4.59","416.9273","2.2916"
"4.6","416.3567","2.2967"
"4.61","415.8052","2.301633"
"4.62","415.2886","2.306733"
"4.63","414.7982","2.3118"
"4.64","414.3079","2.3168"
"4.65","413.8009","2.321933"
"4.66","413.2835","2.3269"
"4.67","412.7693","2.331767"
"4.68","412.2504","2.336733"
"4.69","411.7131","2.341533"
"4.7","411.1465","2.3465"
"4.71","410.556","2.3516"
"4.72","409.9584","2.3565"
"4.73","409.3758","2.361333"
"4.74","408.8259","2.3663"
"4.75","408.3101","2.371367"
"4.76","407.7983","2.376533"
"4.77","407.2722","2.381567"
"4.78","406.7524","2.386633"
"4.79","406.27","2.3918"
"4.8","405.8242","2.396867"
"4.81","405.3879","2.401933"
"4.82","404.9468","2.406967"
"4.83","404.5002","2.4118"
"4.84","404.0408","2.416733"
"4.85","403.5568","2.421633"
"4.86","403.0363","2.426433"
"4.87","402.4744","2.431467"
"4.88","401.8784","2.4365"
"4.89","401.2672","2.441367"
"4.9","400.6577","2.446433"
"4.91","400.0711","2.4515"
"4.92","399.5117","2.4566"
"4.93","398.9736","2.461733"
"4.94","398.4586","2.466733"
"4.95","397.9778","2.4719"
"4.96","397.5264","2.476967"
"4.97","397.0941","2.4818"
"4.98","396.6776","2.4868"
"4.99","396.2763","2.4918"
"5","395.8654","2.496667"
"5.01","395.4252","2.501667"
"5.02","394.9682","2.506533"
"5.03","394.5168","2.5114"
"5.04","394.0686","2.5165"
"5.05","393.614","2.521467"
"5.06","393.153","2.526367"
"5.07","392.7032","2.531433"
"5.08","392.2788","2.5364"
"5.09","391.8759","2.541533"
"5.1","391.4857","2.5467"
"5.11","391.1146","2.551667"
"5.12","390.776","2.5568"
"5.13","390.4732","2.5619"
"5.14","390.1879","2.566867"
"5.15","389.8978","2.572"
"5.16","389.595","2.576967"
"5.17","389.2827","2.5818"
"5.18","388.9688","2.586767"
"5.19","388.6477","2.591567"
"5.2","388.3012","2.596533"
"5.21","387.9142","2.601533"
"5.22","387.5057","2.606333"
"5.23","387.1004","2.6113"
"5.24","386.7165","2.6164"
"5.25","386.3486","2.621433"
"5.26","385.9941","2.626633"
"5.27","385.6603","2.6317"
"5.28","385.3607","2.636667"
"5.29","385.0865","2.6418"
"5.3","384.8123","2.646833"
"5.31","384.5167","2.6519"
"5.32","384.1909","2.656933"
"5.33","383.8515","2.661767"
"5.34","383.5114","2.666767"
"5.35","383.1633","2.6717"
"5.36","382.8001","2.676533"
"5.37","382.4178","2.681567"
"5.38","382.0149","2.6866"
"5.39","381.5929","2.691367"
"5.4","381.1653","2.6964"
"5.41","380.7537","2.701433"
"5.42","380.3603","2.706533"
"5.43","379.9709","2.7117"
"5.44","379.5854","2.716767"
"5.45","379.2198","2.7218"
"5.46","378.8805","2.726833"
"5.47","378.5531","2.731733"
"5.48","378.2225","2.7368"
"5.49","377.8752","2.741867"
"5.5","377.5072","2.7467"
"5.51","377.1265","2.751667"
"5.52","376.7474","2.7566"
"5.53","376.3612","2.761433"
"5.54","375.9416","2.766533"
"5.55","375.4791","2.771533"
"5.56","374.9919","2.7765"
"5.57","374.5047","2.781567"
"5.58","374.0382","2.786533"
"5.59","373.5948","2.791633"
"5.6","373.1664","2.7967"
"5.61","372.7539","2.801633"
"5.62","372.3597","2.806733"
"5.63","371.9711","2.811833"
"5.64","371.5594","2.816833"
"5.65","371.1176","2.821933"
"5.66","370.6614","2.8269"
"5.67","370.206","2.8318"
"5.68","369.7451","2.836767"
"5.69","369.2698","2.8416"
"5.7","368.7771","2.846567"
"5.71","368.2645","2.851633"
"5.72","367.7376","2.856467"
"5.73","367.2139","2.861367"
"5.74","366.7188","2.8664"
"5.75","366.2467","2.871467"
"5.76","365.7802","2.876633"
"5.77","365.3129","2.881733"
"5.78","364.8687","2.8867"
"5.79","364.4514","2.891833"
"5.8","364.0191","2.896867"
"5.81","363.5136","2.901967"
"5.82","362.9224","2.907"
"5.83","362.281","2.911767"
"5.84","361.6293","2.916667"
"5.85","360.9586","2.921633"
"5.86","360.225","2.9265"
"5.87","359.4096","2.931533"
"5.88","358.5458","2.9365"
"5.89","357.6787","2.9413"
"5.9","356.8125","2.9464"
"5.91","355.9383","2.9515"
"5.92","355.0482","2.9566"
"5.93","354.1549","2.961767"
"5.94","353.2807","2.9667"
"5.95","352.4335","2.9718"
"5.96","351.5911","2.976833"
"5.97","350.7209","2.981667"
"5.98","349.7966","2.9867"
"5.99","348.8016","2.991767"
"6","347.72","2.9967"
"6.01","346.5525","3.0017"
"6.02","345.3279","3.006567"
"6.03","344.0531","3.011433"
"6.04","342.7084","3.016567"
"6.05","341.2882","3.021533"
"6.06","339.8394","3.026433"
"6.07","338.4391","3.031467"
"6.08","337.1286","3.0365"
"6.09","335.9048","3.041567"
"6.1","334.7484","3.0467"
"6.11","333.6684","3.051633"
"6.12","332.6702","3.0567"
"6.13","331.7451","3.061767"
"6.14","330.8662","3.066767"
"6.15","330.0198","3.071933"
"6.16","329.2004","3.0769"
"6.17","328.4113","3.0818"
"6.18","327.6563","3.086833"
"6.19","326.9267","3.091633"
"6.2","326.182","3.096633"
"6.21","325.3762","3.1016"
"6.22","324.5036","3.106333"
"6.23","323.6031","3.111333"
"6.24","322.7226","3.116433"
"6.25","321.8754","3.1215"
"6.26","321.0441","3.1266"
"6.27","320.2216","3.131633"
"6.28","319.4078","3.136633"
"6.29","318.5956","3.1418"
"6.3","317.7905","3.146867"
"6.31","317.022","3.151867"
"6.32","316.3107","3.1569"
"6.33","315.6551","3.161767"
"6.34","315.0336","3.166733"
"6.35","314.4296","3.1717"
"6.36","313.8232","3.1765"
"6.37","313.2049","3.1815"
"6.38","312.5588","3.186533"
"6.39","311.8722","3.191367"
"6.4","311.1251","3.196467"
"6.41","310.3209","3.201533"
"6.42","309.4864","3.206633"
"6.43","308.6615","3.2118"
"6.44","307.8771","3.2168"
"6.45","307.1443","3.221867"
"6.46","306.4529","3.226833"
"6.47","305.7838","3.231633"
"6.48","305.117","3.2367"
"6.49","304.4216","3.241767"
"6.5","303.6777","3.246633"
"6.51","302.906","3.251667"
"6.52","302.1479","3.256533"
"6.53","301.4215","3.2614"
"6.54","300.7094","3.266533"
"6.55","299.9941","3.2715"
"6.56","299.2845","3.276467"
"6.57","298.5867","3.2815"
"6.58","297.912","3.286467"
"6.59","297.2571","3.291633"
"6.6","296.6189","3.296767"
"6.61","296.0006","3.301667"
"6.62","295.4197","3.3068"
"6.63","294.8793","3.311867"
"6.64","294.35","3.316867"
"6.65","293.8032","3.321933"
"6.66","293.2342","3.3269"
"6.67","292.6532","3.3318"
"6.68","292.0604","3.336733"
"6.69","291.4333","3.341567"
"6.7","290.7594","3.3465"
"6.71","290.037","3.3516"
"6.72","289.2756","3.356467"
"6.73","288.4817","3.3614"
"6.74","287.6544","3.366367"
"6.75","286.7675","3.3714"
"6.76","285.7947","3.3766"
"6.77","284.7648","3.381667"
"6.78","283.7419","3.386667"
"6.79","282.7549","3.391833"
"6.8","281.7822","3.396933"
"6.81","280.7832","3.402"
"6.82","279.7095","3.407"
"6.83","278.5301","3.411833"
"6.84","277.2546","3.4168"
"6.85","275.9194","3.421733"
"6.86","274.5501","3.4265"
"6.87","273.157","3.4315"
"6.88","271.7543","3.436567"
"6.89","270.3524","3.441433"
"6.9","268.968","3.4465"
"6.91","267.6209","3.451567"
"6.92","266.3112","3.456633"
"6.93","265.0285","3.461767"
"6.94","263.7871","3.466733"
"6.95","262.6212","3.4718"
"6.96","261.5356","3.476867"
"6.97","260.5033","3.481767"
"6.98","259.498","3.4868"
"6.99","258.5006","3.491833"
"7","257.4841","3.4967"
"7.01","256.4184","3.5017"
"7.02","255.2843","3.506533"
"7.03","254.089","3.5114"
"7.04","252.8365","3.5165"
"7.05","251.5316","3.5215"
"7.06","250.1782","3.526433"
"7.07","248.7739","3.5315"
"7.08","247.2846","3.536467"
"7.09","245.6514","3.541567"
"7.1","243.8291","3.546633"
"7.11","241.7691","3.551633"
"7.12","239.4152","3.556767"
"7.13","236.7934","3.5618"
"7.14","234.0825","3.5668"
"7.15","231.5076","3.571933"
"7.16","229.1846","3.5769"
"7.17","227.112","3.581767"
"7.18","225.2348","3.586733"
"7.19","223.4904","3.591567"
"7.2","221.8413","3.596533"
"7.21","220.2868","3.601533"
"7.22","218.8428","3.6063"
"7.23","217.5069","3.611267"
"7.24","216.2592","3.6164"
"7.25","215.0798","3.621433"
"7.26","213.9664","3.6266"
"7.27","212.9285","3.631667"
"7.28","211.9716","3.636667"
"7.29","211.0577","3.641833"
"7.3","210.1572","3.6469"
"7.31","209.2767","3.6519"
"7.32","208.4255","3.656933"
"7.33","207.5927","3.661833"
"7.34","206.7486","3.666733"
"7.35","205.8784","3.671667"
"7.36","204.9541","3.6765"
"7.37","203.9433","3.6815"
"7.38","202.8553","3.6865"
"7.39","201.7657","3.691367"
"7.4","200.7373","3.6964"
"7.41","199.7733","3.701467"
"7.42","198.8602","3.706533"
"7.43","197.9907","3.711733"
"7.44","197.1706","3.716767"
"7.45","196.3846","3.721833"
"7.46","195.601","3.726933"
"7.47","194.7943","3.731833"
"7.48","193.9742","3.736867"
"7.49","193.158","3.741867"
"7.5","192.3505","3.746733"
"7.51","191.5375","3.751733"
"7.52","190.7142","3.756567"
"7.53","189.8813","3.7614"
"7.54","189.0421","3.766467"
"7.55","188.206","3.7714"
"7.56","187.3859","3.776333"
"7.57","186.5943","3.781433"
"7.58","185.8298","3.7864"
"7.59","185.0589","3.791533"
"7.6","184.2244","3.7967"
"7.61","183.2843","3.801633"
"7.62","182.2146","3.806767"
"7.63","181.001","3.8118"
"7.64","179.6277","3.8168"
"7.65","178.0876","3.821933"
"7.66","176.3972","3.826867"
"7.67","174.6249","3.8318"
"7.68","172.8924","3.8368"
"7.69","171.2751","3.8416"
"7.7","169.7453","3.846567"
"7.71","168.1892","3.851667"
"7.72","166.4909","3.8565"
"7.73","164.6717","3.861367"
"7.74","162.9194","3.866367"
"7.75","161.4078","3.8714"
"7.76","160.1537","3.8766"
"7.77","159.0927","3.881667"
"7.78","158.1788","3.886633"
"7.79","157.3849","3.8918"
"7.8","156.6704","3.896867"
"7.81","155.9965","3.901933"
"7.82","155.3496","3.906967"
"7.83","154.7233","3.9118"
"7.84","154.1106","3.916767"
"7.85","153.5018","3.9217"
"7.86","152.8931","3.926533"
"7.87","152.2954","3.9316"
"7.88","151.7121","3.936567"
"7.89","151.1359","3.941367"
"7.9","150.5478","3.9465"
"7.91","149.9502","3.951533"
"7.92","149.351","3.956633"
"7.93","148.7621","3.961767"
"7.94","148.1899","3.966767"
"7.95","147.6002","3.971833"
"7.96","146.8746","3.976833"
"7.97","145.9535","3.9817"
"7.98","144.9831","3.986733"
"7.99","144.194","3.9918"
"8","143.6281","3.9967"
"8.01","143.1576","4.0017"
"8.02","142.7007","4.006567"
"8.03","142.2278","4.011467"
"8.04","141.6818","4.016567"
"8.05","141.0302","4.021567"
"8.06","140.3491","4.0265"
"8.07","139.7777","4.031567"
"8.08","139.3747","4.036533"
"8.09","139.0942","4.041634"
"8.1","138.8788","4.046667"
"8.11","138.7016","4.051667"
"8.12","138.5585","4.0568"
"8.13","138.4314","4.0619"
"8.14","138.3026","4.0669"
"8.15","138.1699","4.072033"
"8.16","138.0229","4.076967"
"8.17","137.8385","4.081833"
"8.18","137.5993","4.086733"
"8.19","137.3275","4.0916"
"8.2","137.0708","4.096567"
"8.21","136.8419","4.1016"
"8.22","136.6345","4.106367"
"8.23","136.4366","4.1113"
"8.24","136.2348","4.1164"
"8.25","136.0075","4.121433"
"8.26","135.7555","4.126633"
"8.27","135.5219","4.131633"
"8.28","135.3391","4.136567"
"8.29","135.1857","4.141767"
"8.3","135.0156","4.1469"
"8.31","134.8027","4.1519"
"8.32","134.5658","4.156933"
"8.33","134.3377","4.161833"
"8.34","134.1104","4.166733"
"8.35","133.8299","4.171667"
"8.36","133.4286","4.176467"
"8.37","132.8889","4.1815"
"8.38","132.2937","4.1865"
"8.39","131.77","4.1913"
"8.4","131.3647","4.1964"
"8.41","131.0213","4.201433"
"8.42","130.6645","4.2065"
"8.43","130.2703","4.2117"
"8.44","129.8793","4.2167"
"8.45","129.5368","4.221734"
"8.46","129.2491","4.226867"
"8.47","128.9964","4.231767"
"8.48","128.7603","4.236733"
"8.49","128.5179","4.241734"
"8.5","128.2438","4.246634"
"8.51","127.9116","4.251633"
"8.52","127.5206","4.2565"
"8.53","127.0771","4.261367"
"8.54","126.5756","4.2665"
"8.55","125.9963","4.271533"
"8.56","125.3676","4.276467"
"8.57","124.7652","4.281567"
"8.58","124.2574","4.286533"
"8.59","123.8465","4.291667"
"8.6","123.4945","4.296767"
"8.61","123.1559","4.301667"
"8.62","122.7832","4.306767"
"8.63","122.362","4.311833"
"8.64","121.936","4.316867"
"8.65","121.5577","4.321967"
"8.66","121.2366","4.3269"
"8.67","120.9569","4.331767"
"8.68","120.6994","4.336733"
"8.69","120.4554","4.3416"
"8.7","120.2154","4.346567"
"8.71","119.9818","4.351634"
"8.72","119.7648","4.356467"
"8.73","119.5693","4.3614"
"8.74","119.3921","4.366433"
"8.75","119.2125","4.371467"
"8.76","119.0138","4.3766"
"8.77","118.7889","4.381667"
"8.78","118.5592","4.386667"
"8.79","118.351","4.3918"
"8.8","118.1579","4.396833"
"8.81","117.9504","4.401867"
"8.82","117.6739","4.4069"
"8.83","117.2543","4.411767"
"8.84","116.6479","4.416634"
"8.85","115.9191","4.4216"
"8.86","115.1856","4.426467"
"8.87","114.452","4.4315"
"8.88","113.6764","4.436467"
"8.89","112.9317","4.4413"
"8.9","112.3428","4.446434"
"8.91","111.924","4.451467"
"8.92","111.6006","4.456567"
"8.93","111.32","4.4618"
"8.94","111.0697","4.4668"
"8.95","110.8472","4.471833"
"8.96","110.6405","4.4769"
"8.97","110.4307","4.481767"
"8.98","110.1891","4.486767"
"8.99","109.8752","4.491867"
"9","109.4413","4.496767"
"9.01","108.8762","4.501733"
"9.02","108.2206","4.506633"
"9.03","107.5228","4.511467"
"9.04","106.8282","4.516567"
"9.05","106.1749","4.5215"
"9.06","105.5185","4.526433"
"9.07","104.6991","4.531533"
"9.08","103.5667","4.5365"
"9.09","102.2037","4.541667"
"9.1","100.9019","4.546733"
"9.11","99.84573","4.551633"
"9.12","98.98504","4.5567"
"9.13","98.18077","4.5618"
"9.14","97.30895","4.566833"
"9.15","96.30362","4.571967"
"9.16","95.23312","4.576933"
"9.17","94.26038","4.581867"
"9.18","93.46962","4.5868"
"9.19","92.84496","4.5916"
"9.2","92.32998","4.596567"
"9.21","91.87936","4.601634"
"9.22","91.46452","4.606433"
"9.23","91.06159","4.611333"
"9.24","90.669","4.616434"
"9.25","90.29309","4.621467"
"9.26","89.90446","4.626633"
"9.27","89.44511","4.631633"
"9.28","88.86179","4.6366"
"9.29","88.1497","4.641767"
"9.3","87.3224","4.646867"
"9.31","86.39971","4.651867"
"9.32","85.46988","4.656933"
"9.33","84.6839","4.6618"
"9.34","84.11566","4.6667"
"9.35","83.70718","4.671566"
"9.36","83.371","4.676467"
"9.37","83.05868","4.6815"
"9.38","82.70422","4.686533"
"9.39","82.22024","4.691367"
"9.4","81.59637","4.6964"
"9.41","80.94469","4.701533"
"9.42","80.34944","4.7066"
"9.43","79.70572","4.711733"
"9.44","78.73933","4.716767"
"9.45","77.18324","4.721833"
"9.46","75.13682","4.726933"
"9.47","73.19292","4.731833"
"9.48","71.9134","4.736733"
"9.49","71.28239","4.741734"
"9.5","70.92794","4.746667"
"9.51","70.59574","4.751633"
"9.52","70.18169","4.756567"
"9.53","69.62458","4.761467"
"9.54","68.92363","4.7665"
"9.55","68.17738","4.771433"
"9.56","67.47246","4.776333"
"9.57","66.72303","4.781434"
"9.58","65.763","4.7865"
"9.59","64.58839","4.7916"
"9.6","63.36212","4.796667"
"9.61","62.22248","4.801633"
"9.62","61.19092","4.806734"
"9.63","60.24678","4.811833"
"9.64","59.39801","4.8169"
"9.65","58.72726","4.821967"
"9.66","58.34579","4.8269"
"9.67","58.23215","4.831733"
"9.68","58.23215","4.836733"
"9.69","58.21466","4.8416"
"9.7","58.06446","4.8465"
"9.71","57.59398","4.851567"
"9.72","56.70547","4.8565"
"9.73","55.51259","4.861367"
"9.74","54.06539","4.866333"
"9.75","52.36864","4.871367"
"9.76","50.72753","4.876567"
"9.77","49.53941","4.881633"
"9.78","48.83687","4.886633"
"9.79","48.36003","4.891833"
"9.8","47.89035","4.8969"
"9.81","47.38331","4.901967"
"9.82","46.92078","4.907067"
"9.83","46.57189","4.9119"
"9.84","46.30486","4.916733"
"9.85","46.0577","4.921633"
"9.86","45.82484","4.9265"
"9.87","45.64762","4.931533"
"9.88","45.55066","4.936533"
"9.89","45.51728","4.9414"
"9.9","45.51093","4.946434"
"9.91","45.50219","4.951433"
"9.92","45.46881","4.956533"
"9.93","45.41715","4.961667"
"9.94","45.3639","4.966667"
"9.95","45.31224","4.971767"
"9.96","45.25026","4.976933"
"9.97","45.17635","4.9818"
"9.98","45.11039","4.9868"
"9.99","45.0635","4.991833"
"10","45.03409","4.996733"
"10.01","45.02456","5.001667"
"10.02","45.02932","5.0065"
"10.03","45.03171","5.011367"
"10.04","45.01899","5.016567"
"10.05","45.0023","5.021533"
"10.06","44.98959","5.026433"
"10.07","44.98005","5.031533"
"10.08","44.9578","5.036567"
"10.09","44.91647","5.0416"
"10.1","44.86084","5.046667"
"10.11","44.79964","5.0516"
"10.12","44.7313","5.056734"
"10.13","44.65977","5.061833"
"10.14","44.58984","5.0668"
"10.15","44.52546","5.071867"
"10.16","44.47063","5.076833"
"10.17","44.43248","5.081767"
"10.18","44.42294","5.086767"
"10.19","44.45394","5.0916"
"10.2","44.51196","5.096567"
"10.21","44.56599","5.101667"
"10.22","44.5946","5.106433"
"10.23","44.58984","5.111333"
"10.24","44.55249","5.1165"
"10.25","44.49606","5.121567"
"10.26","44.43884","5.1267"
"10.27","44.39354","5.131667"
"10.28","44.3546","5.136633"
"10.29","44.31327","5.1418"
"10.3","44.26877","5.146867"
"10.31","44.2338","5.151867"
"10.32","44.21632","5.156933"
"10.33","44.21313","5.161833"
"10.34","44.22744","5.166767"
"10.35","44.26479","5.171667"
"10.36","44.31168","5.176434"
"10.37","44.34586","5.181467"
"10.38","44.36334","5.186533"
"10.39","44.37367","5.1914"
"10.4","44.37844","5.196434"
"10.41","44.37606","5.2015"
"10.42","44.37447","5.206567"
"10.43","44.37447","5.2117"
"10.44","44.36731","5.2167"
"10.45","44.34586","5.221734"
"10.46","44.32917","5.226933"
"10.47","44.32917","5.2319"
"10.48","44.34745","5.236867"
"10.49","44.37208","5.241867"
"10.5","44.40069","5.246733"
"10.51","44.42374","5.2517"
"10.52","44.43486","5.256567"
"10.53","44.4301","5.2614"
"10.54","44.40149","5.2665"
"10.55","44.3387","5.2715"
"10.56","44.24254","5.2764"
"10.57","44.13128","5.281434"
"10.58","44.02002","5.2865"
"10.59","43.89286","5.291567"
"10.6","43.71881","5.2967"
"10.61","43.48278","5.301667"
"10.62","43.20304","5.306734"
"10.63","42.92011","5.311833"
"10.64","42.65785","5.316833"
"10.65","42.40592","5.3219"
"10.66","42.12856","5.326833"
"10.67","41.81306","5.331733"
"10.68","41.49199","5.336767"
"10.69","41.20588","5.3416"
"10.7","40.96031","5.346533"
"10.71","40.74494","5.351667"
"10.72","40.5399","5.356534"
"10.73","40.32135","5.361367"
"10.74","40.0575","5.366367"
"10.75","39.69272","5.371433"
"10.76","39.09111","5.376633"
"10.77","37.96657","5.381667"
"10.78","35.91855","5.386633"
"10.79","32.79527","5.3918"
"10.8","29.12283","5.396867"
"10.81","25.88113","5.4019"
"10.82","23.71232","5.4069"
"10.83","22.6148","5.411734"
"10.84","22.21187","5.416667"
"10.85","22.11094","5.421534"
"10.86","22.09345","5.426367"
"10.87","22.09107","5.431433"
"10.88","22.09345","5.4365"
"10.89","22.09822","5.441367"
"10.9","22.10538","5.446467"
"10.91","22.10935","5.451533"
"10.92","22.10299","5.456634"
"10.93","22.08948","5.461733"
"10.94","22.07994","5.4667"
"10.95","22.07597","5.471767"
"10.96","22.072","5.476967"
"10.97","22.06484","5.4818"
"10.98","22.06008","5.486767"
"10.99","22.06008","5.4918"
"11","22.06246","5.496667"
"11.01","22.06484","5.501667"
"11.02","22.07359","5.506567"
"11.03","22.08471","5.5114"
"11.04","22.08948","5.516567"
"11.05","22.08948","5.521533"
"11.06","22.09187","5.526433"
"11.07","22.09584","5.531533"
"11.08","22.09187","5.536533"
"11.09","22.08471","5.541667"
"11.1","22.08471","5.546733"
"11.11","22.08869","5.551667"
"11.12","22.08869","5.556734"
"11.13","22.08551","5.561833"
"11.14","22.09107","5.566833"
"11.15","22.10458","5.571967"
"11.16","22.11173","5.5769"
"11.17","22.10538","5.581767"
"11.18","22.09822","5.5867"
"11.19","22.09822","5.591533"
"11.2","22.09981","5.5965"
"11.21","22.09663","5.601567"
"11.22","22.09187","5.6063"
"11.23","22.09107","5.611233"
"11.24","22.08869","5.616333"
"11.25","22.07994","5.6214"
"11.26","22.072","5.626567"
"11.27","22.07438","5.6316"
"11.28","22.07836","5.6366"
"11.29","22.07994","5.6418"
"11.3","22.08074","5.646833"
"11.31","22.08074","5.6518"
"11.32","22.08074","5.656933"
"11.33","22.08074","5.661833"
"11.34","22.08233","5.666767"
"11.35","22.08312","5.671667"
"11.36","22.08233","5.676467"
"11.37","22.08233","5.6815"
"11.38","22.08471","5.686567"
"11.39","22.0871","5.6914"
"11.4","22.08312","5.696434"
"11.41","22.07597","5.701467"
"11.42","22.07994","5.706567"
"11.43","22.09663","5.7117"
"11.44","22.11173","5.7167"
"11.45","22.11094","5.721767"
"11.46","22.1022","5.726933"
"11.47","22.10299","5.731867"
"11.48","22.10776","5.736867"
"11.49","22.10776","5.741833"
"11.5","22.10061","5.746733"
"11.51","22.09822","5.751733"
"11.52","22.1022","5.756667"
"11.53","22.10458","5.761533"
"11.54","22.10061","5.7666"
"11.55","22.09663","5.7715"
"11.56","22.09981","5.7764"
"11.57","22.09822","5.7815"
"11.58","22.09584","5.786533"
"11.59","22.09663","5.7916"
"11.6","22.10299","5.796767"
"11.61","22.10538","5.801733"
"11.62","22.10061","5.806833"
"11.63","22.09663","5.8119"
"11.64","22.10061","5.8169"
"11.65","22.10538","5.821967"
"11.66","22.10776","5.826867"
"11.67","22.10697","5.8318"
"11.68","22.10776","5.8367"
"11.69","22.11173","5.841467"
"11.7","22.11332","5.846433"
"11.71","22.11332","5.851567"
"11.72","22.11571","5.8565"
"11.73","22.12286","5.861367"
"11.74","22.12445","5.866367"
"11.75","22.11571","5.871433"
"11.76","22.10458","5.876633"
"11.77","22.09981","5.881667"
"11.78","22.09663","5.886633"
"11.79","22.09425","5.8918"
"11.8","22.09187","5.896867"
"11.81","22.09345","5.9019"
"11.82","22.09425","5.906967"
"11.83","22.09584","5.911833"
"11.84","22.09981","5.9167"
"11.85","22.10538","5.921567"
"11.86","22.10458","5.9264"
"11.87","22.09345","5.931467"
"11.88","22.08312","5.9365"
"11.89","22.08074","5.941367"
"11.9","22.08233","5.9464"
"11.91","22.07836","5.951467"
"11.92","22.0712","5.9566"
"11.93","22.06882","5.961767"
"11.94","22.07438","5.966733"
"11.95","22.08471","5.971767"
"11.96","22.09187","5.976933"
"11.97","22.09107","5.981833"
"11.98","22.08471","5.986834"
"11.99","22.07836","5.9919"
"12","22.07836","5.996767"
"12.01","22.08312","6.001667"
"12.02","22.09107","6.006534"
"12.03","22.09981","6.011434"
"12.04","22.1022","6.016567"
"12.05","22.09663","6.021533"
"12.06","22.09187","6.026433"
"12.07","22.09107","6.031533"
"12.08","22.09345","6.036533"
"12.09","22.09425","6.0416"
"12.1","22.09425","6.046633"
"12.11","22.1022","6.051533"
"12.12","22.11173","6.056667"
"12.13","22.1165","6.0618"
"12.14","22.11173","6.066833"
"12.15","22.1022","6.071933"
"12.16","22.09425","6.076833"
"12.17","22.09107","6.081767"
"12.18","22.09107","6.086733"
"12.19","22.09187","6.0916"
"12.2","22.09345","6.096533"
"12.21","22.09663","6.101667"
"12.22","22.1022","6.106467"
"12.23","22.10538","6.111333"
"12.24","22.10697","6.1164"
"12.25","22.10538","6.121467"
"12.26","22.10538","6.126633"
"12.27","22.10458","6.131633"
"12.28","22.10061","6.136567"
"12.29","22.09584","6.141733"
"12.3","22.08948","6.1468"
"12.31","22.08948","6.1518"
"12.32","22.09584","6.1569"
"12.33","22.09822","6.161867"
"12.34","22.09584","6.166833"
"12.35","22.09345","6.1717"
"12.36","22.09345","6.176467"
"12.37","22.08869","6.1815"
"12.38","22.07756","6.1865"
"12.39","22.06882","6.191367"
"12.4","22.072","6.196467"
"12.41","22.08312","6.201567"
"12.42","22.09107","6.206634"
"12.43","22.09425","6.2117"
"12.44","22.09584","6.216667"
"12.45","22.09107","6.221734"
"12.46","22.08233","6.2269"
"12.47","22.07836","6.231867"
"12.48","22.08551","6.2368"
"12.49","22.09425","6.2418"
"12.5","22.09981","6.246634"
"12.51","22.09981","6.251667"
"12.52","22.10061","6.256567"
"12.53","22.09822","6.2614"
"12.54","22.09425","6.266467"
"12.55","22.09663","6.271433"
"12.56","22.10299","6.276333"
"12.57","22.10697","6.281467"
"12.58","22.10538","6.286533"
"12.59","22.1022","6.291634"
"12.6","22.10061","6.296733"
"12.61","22.1022","6.301667"
"12.62","22.1022","6.306767"
"12.63","22.10458","6.311833"
"12.64","22.10697","6.316867"
"12.65","22.10697","6.321967"
"12.66","22.1022","6.326933"
"12.67","22.09822","6.3318"
"12.68","22.09187","6.336767"
"12.69","22.0871","6.341567"
"12.7","22.08948","6.346533"
"12.71","22.09981","6.3516"
"12.72","22.11173","6.356467"
"12.73","22.11889","6.361367"
"12.74","22.11809","6.3664"
"12.75","22.11094","6.371433"
"12.76","22.1022","6.3766"
"12.77","22.09822","6.3817"
"12.78","22.09981","6.386734"
"12.79","22.10061","6.391867"
"12.8","22.09345","6.3969"
"12.81","22.08074","6.401967"
"12.82","22.07756","6.407"
"12.83","22.08233","6.411867"
"12.84","22.0871","6.416767"
"12.85","22.08551","6.421767"
"12.86","22.08312","6.426567"
"12.87","22.08471","6.431533"
"12.88","22.0871","6.436567"
"12.89","22.0871","6.4414"
"12.9","22.08312","6.4465"
"12.91","22.08233","6.451533"
"12.92","22.08312","6.456533"
"12.93","22.0871","6.461667"
"12.94","22.09107","6.4667"
"12.95","22.08869","6.4718"
"12.96","22.07836","6.4769"
"12.97","22.06723","6.481733"
"12.98","22.06882","6.486733"
"12.99","22.07756","6.491767"
"13","22.08233","6.496667"
"13.01","22.08471","6.501633"
"13.02","22.09107","6.506534"
"13.03","22.09822","6.5114"
"13.04","22.09822","6.516533"
"13.05","22.09345","6.5215"
"13.06","22.09187","6.526467"
"13.07","22.09584","6.5316"
"13.08","22.09663","6.536567"
"13.09","22.09107","6.5416"
"13.1","22.08869","6.546667"
"13.11","22.09584","6.5516"
"13.12","22.10697","6.5567"
"13.13","22.11412","6.5618"
"13.14","22.1165","6.5668"
"13.15","22.11889","6.571933"
"13.16","22.1165","6.5769"
"13.17","22.11412","6.581767"
"13.18","22.11094","6.5867"
"13.19","22.10776","6.591533"
"13.2","22.10299","6.5965"
"13.21","22.09981","6.601567"
"13.22","22.09981","6.606333"
"13.23","22.09981","6.611267"
"13.24","22.09663","6.616367"
"13.25","22.09584","6.621433"
"13.26","22.09981","6.6266"
"13.27","22.10538","6.631667"
"13.28","22.10697","6.6367"
"13.29","22.10458","6.641867"
"13.3","22.10697","6.6469"
"13.31","22.11094","6.651933"
"13.32","22.10935","6.656967"
"13.33","22.10935","6.6618"
"13.34","22.11412","6.6667"
"13.35","22.11889","6.671567"
"13.36","22.11412","6.6764"
"13.37","22.10458","6.6815"
"13.38","22.09822","6.686567"
"13.39","22.09981","6.691367"
"13.4","22.09981","6.696434"
"13.41","22.09584","6.7015"
"13.42","22.08948","6.706567"
"13.43","22.08551","6.7117"
"13.44","22.08869","6.7167"
"13.45","22.09345","6.7218"
"13.46","22.09584","6.7269"
"13.47","22.09345","6.731833"
"13.48","22.09345","6.736834"
"13.49","22.09663","6.7419"
"13.5","22.10061","6.746733"
"13.51","22.09663","6.751733"
"13.52","22.08948","6.756633"
"13.53","22.08551","6.761434"
"13.54","22.08948","6.7665"
"13.55","22.09663","6.771433"
"13.56","22.10458","6.776333"
"13.57","22.11173","6.781434"
"13.58","22.11412","6.786433"
"13.59","22.10697","6.791567"
"13.6","22.09663","6.796667"
"13.61","22.09345","6.8016"
"13.62","22.09584","6.806734"
"13.63","22.09822","6.8118"
"13.64","22.1022","6.8168"
"13.65","22.10458","6.821933"
"13.66","22.10458","6.826867"
"13.67","22.10299","6.8318"
"13.68","22.10458","6.836733"
"13.69","22.10697","6.841567"
"13.7","22.10935","6.846533"
"13.71","22.10697","6.851634"
"13.72","22.10538","6.8565"
"13.73","22.10697","6.861434"
"13.74","22.11094","6.866467"
"13.75","22.11809","6.871467"
"13.76","22.12683","6.8766"
"13.77","22.1324","6.881633"
"13.78","22.1324","6.885867"
"13.79","22.13001","6.887533"