File: degradation_testing/tensile_testing/PLA/PLA_Acetone/PLA-A-1.csv
"1 _ 1",,
"Time","Force","Stroke"
"sec","N","mm"
"0","0.5141894","0.0001"
"0.01","0.5110105","0.001733333"
"0.02","0.5094211","0.005933333"
"0.03","0.5427997","0.01073333"
"0.04","0.7565816","0.01576667"
"0.05","1.461506","0.02096667"
"0.06","3.034274","0.0263"
"0.07","5.648136","0.03136667"
"0.08","9.118716","0.03653333"
"0.09","13.0558","0.04163333"
"0.1","17.13594","0.04653334"
"0.11","21.20415","0.05166667"
"0.12","25.20323","0.05673333"
"0.13","29.09184","0.0616"
"0.14","32.82388","0.06656667"
"0.15","36.35963","0.0714"
"0.16","39.63868","0.07633334"
"0.17","42.49652","0.08146667"
"0.18","44.65898","0.0864"
"0.19","45.93293","0.0913"
"0.2","46.44791","0.09636667"
"0.21","46.59017","0.1014333"
"0.22","46.66169","0.1065667"
"0.23","46.7221","0.1116667"
"0.24","46.74832","0.1166"
"0.25","46.75309","0.1217667"
"0.26","46.75229","0.1268"
"0.27","46.74673","0.1317667"
"0.28","46.74117","0.1369"
"0.29","46.73719","0.1418333"
"0.3","46.73799","0.1468"
"0.31","46.73958","0.1517333"
"0.32","46.73322","0.1565667"
"0.33","46.7221","0.1616333"
"0.34","46.71494","0.1666"
"0.35","46.71335","0.1713333"
"0.36","46.71494","0.1764"
"0.37","46.71653","0.1814667"
"0.38","46.7213","0.1865333"
"0.39","46.7356","0.1916667"
"0.4","46.75309","0.1966333"
"0.41","46.7658","0.2016667"
"0.42","46.77534","0.2068"
"0.43","46.78806","0.2118333"
"0.44","46.79759","0.2168333"
"0.45","46.80157","0.2218667"
"0.46","46.80236","0.2268"
"0.47","46.80474","0.2317333"
"0.48","46.8111","0.2366"
"0.49","46.81269","0.2414333"
"0.5","46.80793","0.2465333"
"0.51","46.81031","0.2515333"
"0.52","46.82223","0.2564"
"0.53","46.83256","0.2615"
"0.54","46.83335","0.2665333"
"0.55","46.83097","0.2716333"
"0.56","46.83097","0.2767333"
"0.57","46.827","0.2816667"
"0.58","46.81746","0.2867667"
"0.59","46.80634","0.2918333"
"0.6","46.79998","0.2967667"
"0.61","46.79521","0.3017667"
"0.62","46.79044","0.3067333"
"0.63","46.79282","0.3116333"
"0.64","46.81269","0.3166333"
"0.65","46.8421","0.3214667"
"0.66","46.86197","0.3264"
"0.67","46.87071","0.3314667"
"0.68","46.87309","0.3363667"
"0.69","46.87309","0.3413667"
"0.7","46.87707","0.3464333"
"0.71","46.88263","0.3514667"
"0.72","46.88819","0.3567"
"0.73","46.89058","0.3617667"
"0.74","46.89614","0.3667333"
"0.75","46.90965","0.3718333"
"0.76","46.92395","0.3768667"
"0.77","46.92634","0.3819"
"0.78","46.92078","0.3869333"
"0.79","46.92078","0.3918333"
"0.8","46.9319","0.3967667"
"0.81","46.94462","0.4016667"
"0.82","46.95415","0.4064667"
"0.83","46.96687","0.4115"
"0.84","46.98674","0.4166333"
"0.85","47.00899","0.4214667"
"0.86","47.03601","0.4264"
"0.87","47.06462","0.4314"
"0.88","47.09244","0.4365333"
"0.89","47.12502","0.4416667"
"0.9","47.18781","0.4466333"
"0.91","47.3698","0.4516667"
"0.92","47.86332","0.4568333"
"0.93","48.89806","0.4618667"
"0.94","50.61388","0.4669"
"0.95","52.99091","0.4719333"
"0.96","55.85114","0.4767333"
"0.97","58.9339","0.4817"
"0.98","62.00154","0.4866"
"0.99","64.90866","0.4914667"
"1","67.5869","0.4965"
"1.01","70.03228","0.5014"
"1.02","72.28533","0.5063334"
"1.03","74.43269","0.5114334"
"1.04","76.60389","0.5164"
"1.05","78.92688","0.5215667"
"1.06","81.50896","0.5267"
"1.07","84.42481","0.5316667"
"1.08","87.71261","0.5368333"
"1.09","91.32227","0.5419"
"1.1","95.12822","0.5467"
"1.11","99.00093","0.5516667"
"1.12","102.8633","0.5567"
"1.13","106.674","0.5616333"
"1.14","110.4212","0.5667"
"1.15","114.1421","0.5715"
"1.16","117.8916","0.5764334"
"1.17","121.6737","0.5816"
"1.18","125.4455","0.5865"
"1.19","129.1823","0.5914667"
"1.2","132.9001","0.5965"
"1.21","136.6011","0.6015334"
"1.22","140.2712","0.6066667"
"1.23","143.923","0.6117"
"1.24","147.5922","0.6166334"
"1.25","151.2822","0.6217334"
"1.26","154.9538","0.6268"
"1.27","158.5833","0.6318"
"1.28","162.1771","0.6368334"
"1.29","165.7573","0.6417"
"1.3","169.328","0.6466666"
"1.31","172.8821","0.6517"
"1.32","176.4091","0.6565"
"1.33","179.8908","0.6615334"
"1.34","183.3336","0.6665667"
"1.35","186.7692","0.6712667"
"1.36","190.2103","0.6762667"
"1.37","193.6396","0.6813667"
"1.38","197.0323","0.6864667"
"1.39","200.3829","0.6916333"
"1.4","203.7319","0.6965333"
"1.41","207.1277","0.7015667"
"1.42","210.5649","0.7067333"
"1.43","213.9982","0.7117333"
"1.44","217.3853","0.7167667"
"1.45","220.7351","0.7218333"
"1.46","224.0753","0.7267"
"1.47","227.414","0.7316667"
"1.48","230.7336","0.7365667"
"1.49","234.0062","0.7414333"
"1.5","237.2122","0.7465333"
"1.51","240.3522","0.7515"
"1.52","243.4436","0.7563334"
"1.53","246.5113","0.7614"
"1.54","249.5639","0.7664334"
"1.55","252.5894","0.7715667"
"1.56","255.5744","0.7767"
"1.57","258.5276","0.7817333"
"1.58","261.4665","0.7868667"
"1.59","264.4197","0.7919667"
"1.6","267.4206","0.7968667"
"1.61","270.4835","0.8019"
"1.62","273.571","0.8068333"
"1.63","276.6164","0.8117"
"1.64","279.5712","0.8166333"
"1.65","282.4179","0.8215333"
"1.66","285.1573","0.8264667"
"1.67","287.8054","0.8315333"
"1.68","290.3859","0.8364334"
"1.69","292.9298","0.8413666"
"1.7","295.4483","0.8464333"
"1.71","297.9477","0.8515"
"1.72","300.4289","0.8566667"
"1.73","302.8949","0.8617667"
"1.74","305.3562","0.8667334"
"1.75","307.831","0.8718333"
"1.76","310.3248","0.8768333"
"1.77","312.8179","0.8818"
"1.78","315.276","0.8868667"
"1.79","317.6848","0.8918"
"1.8","320.0499","0.8967"
"1.81","322.3745","0.9016667"
"1.82","324.6538","0.9065"
"1.83","326.883","0.9115334"
"1.84","329.0677","0.9166334"
"1.85","331.2238","0.9214333"
"1.86","333.3791","0.9263"
"1.87","335.5527","0.9312333"
"1.88","337.735","0.9363667"
"1.89","339.8983","0.9415333"
"1.9","342.044","0.9465333"
"1.91","344.2137","0.9515333"
"1.92","346.4429","0.9566666"
"1.93","348.7174","0.9617333"
"1.94","350.9911","0.9669"
"1.95","353.2386","0.9719334"
"1.96","355.4789","0.9767333"
"1.97","357.724","0.9817333"
"1.98","359.9668","0.9865667"
"1.99","362.1761","0.9914333"
"2","364.3362","0.9965333"
"2.01","366.4557","1.001467"
"2.02","368.5562","1.006367"
"2.03","370.6566","1.0115"
"2.04","372.7651","1.016533"
"2.05","374.8766","1.021633"
"2.06","376.9875","1.026767"
"2.07","379.1054","1.031733"
"2.08","381.2329","1.036867"
"2.09","383.3612","1.041933"
"2.1","385.4791","1.046733"
"2.11","387.5868","1.0518"
"2.12","389.6864","1.056767"
"2.13","391.775","1.0617"
"2.14","393.846","1.0667"
"2.15","395.9012","1.0715"
"2.16","397.9508","1.076433"
"2.17","399.9964","1.081567"
"2.18","402.0238","1.0865"
"2.19","404.0329","1.0915"
"2.2","406.0427","1.096533"
"2.21","408.0804","1.101533"
"2.22","410.1411","1.1066"
"2.23","412.2122","1.111667"
"2.24","414.2912","1.116633"
"2.25","416.3782","1.121767"
"2.26","418.4667","1.1268"
"2.27","420.5497","1.1318"
"2.28","422.6248","1.1369"
"2.29","424.6902","1.141833"
"2.3","426.7407","1.146833"
"2.31","428.772","1.151767"
"2.32","430.7898","1.156567"
"2.33","432.7933","1.161567"
"2.34","434.7738","1.166567"
"2.35","436.7256","1.1713"
"2.36","438.6632","1.176267"
"2.37","440.6142","1.1813"
"2.38","442.5844","1.186367"
"2.39","444.5529","1.1915"
"2.4","446.5302","1.196467"
"2.41","448.5488","1.201533"
"2.42","450.6143","1.206767"
"2.43","452.6901","1.211767"
"2.44","454.7501","1.2168"
"2.45","456.8013","1.221867"
"2.46","458.8524","1.226733"
"2.47","460.8862","1.231733"
"2.48","462.8849","1.2366"
"2.49","464.8479","1.241433"
"2.5","466.7799","1.246533"
"2.51","468.6904","1.251467"
"2.52","470.5922","1.256367"
"2.53","472.5051","1.261433"
"2.54","474.4418","1.266433"
"2.55","476.3889","1.2716"
"2.56","478.3376","1.276733"
"2.57","480.2918","1.281667"
"2.58","482.258","1.2868"
"2.59","484.2289","1.2919"
"2.6","486.1848","1.296733"
"2.61","488.1151","1.301767"
"2.62","490.0265","1.3067"
"2.63","491.9179","1.3116"
"2.64","493.7776","1.3166"
"2.65","495.6102","1.321467"
"2.66","497.4357","1.326433"
"2.67","499.2572","1.331533"
"2.68","501.0748","1.336433"
"2.69","502.8955","1.3414"
"2.7","504.7234","1.346467"
"2.71","506.5457","1.351467"
"2.72","508.3537","1.3566"
"2.73","510.1617","1.361733"
"2.74","511.9983","1.366667"
"2.75","513.8691","1.3717"
"2.76","515.7574","1.376733"
"2.77","517.6298","1.381767"
"2.78","519.464","1.386867"
"2.79","521.2617","1.3918"
"2.8","523.049","1.396733"
"2.81","524.8356","1.401667"
"2.82","526.6094","1.406533"
"2.83","528.3459","1.4116"
"2.84","530.0339","1.416667"
"2.85","531.6822","1.4215"
"2.86","533.3185","1.426433"
"2.87","534.9636","1.431333"
"2.88","536.5968","1.4365"
"2.89","538.1759","1.4417"
"2.9","539.6978","1.446633"
"2.91","541.2014","1.451633"
"2.92","542.7217","1.4568"
"2.93","544.2333","1.461833"
"2.94","545.6893","1.466933"
"2.95","547.0872","1.471967"
"2.96","548.4573","1.4768"
"2.97","549.8203","1.4817"
"2.98","551.1753","1.486533"
"2.99","552.5081","1.491367"
"3","553.7788","1.4965"
"3.01","554.9471","1.501467"
"3.02","556.0088","1.506333"
"3.03","556.9879","1.511433"
"3.04","557.8907","1.516467"
"3.05","558.691","1.5216"
"3.06","559.3633","1.526767"
"3.07","559.9125","1.531733"
"3.08","560.36","1.536933"
"3.09","560.7009","1.5419"
"3.1","560.9115","1.546667"
"3.11","560.9584","1.551733"
"3.12","560.8193","1.5567"
"3.13","560.476","1.561567"
"3.14","559.9236","1.566567"
"3.15","559.1718","1.571433"
"3.16","558.207","1.5764"
"3.17","556.9847","1.581533"
"3.18","555.4573","1.586433"
"3.19","553.6031","1.5915"
"3.2","551.4312","1.596567"
"3.21","548.9707","1.601467"
"3.22","546.2662","1.606567"
"3.23","543.3639","1.611667"
"3.24","540.3137","1.616667"
"3.25","537.1642","1.6218"
"3.26","533.9623","1.626833"
"3.27","530.7341","1.631867"
"3.28","527.49","1.637033"
"3.29","524.2538","1.6419"
"3.3","521.0519","1.646767"
"3.31","517.9","1.651733"
"3.32","514.799","1.6566"
"3.33","511.7416","1.661667"
"3.34","508.7479","1.666633"
"3.35","505.8503","1.671367"
"3.36","503.0719","1.676367"
"3.37","500.4064","1.6814"
"3.38","497.8331","1.686433"
"3.39","495.3369","1.6916"
"3.4","492.9415","1.6966"
"3.41","490.6702","1.701633"
"3.42","488.5165","1.706833"
"3.43","486.4565","1.711833"
"3.44","484.4673","1.716933"
"3.45","482.5393","1.721933"
"3.46","480.6693","1.726767"
"3.47","478.8478","1.7317"
"3.48","477.0533","1.736567"
"3.49","475.2803","1.7414"
"3.5","473.5279","1.746533"
"3.51","471.8026","1.751533"
"3.52","470.1154","1.756433"
"3.53","468.4941","1.7615"
"3.54","466.95","1.766533"
"3.55","465.463","1.7716"
"3.56","464.0094","1.776767"
"3.57","462.5972","1.781767"
"3.58","461.2382","1.786867"
"3.59","459.9269","1.7919"
"3.6","458.649","1.796733"
"3.61","457.3973","1.801733"
"3.62","456.1639","1.806733"
"3.63","454.9384","1.8116"
"3.64","453.7225","1.816633"
"3.65","452.5352","1.821467"
"3.66","451.3892","1.826433"
"3.67","450.263","1.8315"
"3.68","449.1409","1.8364"
"3.69","448.0394","1.841433"
"3.7","446.9816","1.846533"
"3.71","445.9643","1.851467"
"3.72","444.9677","1.856633"
"3.73","443.9942","1.861767"
"3.74","443.0667","1.8667"
"3.75","442.1767","1.871767"
"3.76","441.3056","1.876833"
"3.77","440.4449","1.881867"
"3.78","439.5906","1.886967"
"3.79","438.7442","1.891833"
"3.8","437.9113","1.896733"
"3.81","437.0856","1.901633"
"3.82","436.2623","1.9065"
"3.83","435.4278","1.911533"
"3.84","434.5807","1.9166"
"3.85","433.739","1.921433"
"3.86","432.9403","1.926367"
"3.87","432.2052","1.931367"
"3.88","431.5209","1.936433"
"3.89","430.8542","1.941567"
"3.9","430.1938","1.946533"
"3.91","429.5516","1.9516"
"3.92","428.946","1.9568"
"3.93","428.3818","1.961867"
"3.94","427.8421","1.967"
"3.95","427.3097","1.972067"
"3.96","426.7852","1.9768"
"3.97","426.2726","1.9817"
"3.98","425.7528","1.986533"
"3.99","425.187","1.9914"
"4","424.5583","1.9965"
"4.01","423.8979","2.001533"
"4.02","423.2518","2.0064"
"4.03","422.643","2.011467"
"4.04","422.0676","2.016533"
"4.05","421.5145","2.021667"
"4.06","420.9757","2.026767"
"4.07","420.4567","2.031733"
"4.08","419.9695","2.0369"
"4.09","419.515","2.041933"
"4.1","419.0779","2.046767"
"4.11","418.6328","2.051767"
"4.12","418.1663","2.056733"
"4.13","417.672","2.061633"
"4.14","417.1475","2.066633"
"4.15","416.5975","2.071467"
"4.16","416.0372","2.076467"
"4.17","415.4754","2.0816"
"4.18","414.9143","2.086533"
"4.19","414.3524","2.091533"
"4.2","413.8033","2.0966"
"4.21","413.2859","2.101567"
"4.22","412.7979","2.106567"
"4.23","412.3187","2.111567"
"4.24","411.8482","2.116533"
"4.25","411.3913","2.1217"
"4.26","410.9414","2.126733"
"4.27","410.4908","2.131767"
"4.28","410.045","2.136867"
"4.29","409.6166","2.141767"
"4.3","409.2065","2.146733"
"4.31","408.8012","2.1517"
"4.32","408.3745","2.1565"
"4.33","407.9111","2.161533"
"4.34","407.4256","2.1665"
"4.35","406.9392","2.1713"
"4.36","406.4623","2.176333"
"4.37","405.999","2.181367"
"4.38","405.5524","2.186433"
"4.39","405.1264","2.1916"
"4.4","404.7307","2.1966"
"4.41","404.3706","2.201633"
"4.42","404.0384","2.2068"
"4.43","403.7118","2.2118"
"4.44","403.3685","2.216867"
"4.45","403.0005","2.221867"
"4.46","402.6238","2.226733"
"4.47","402.2463","2.2317"
"4.48","401.8593","2.2366"
"4.49","401.4548","2.241467"
"4.5","401.0296","2.2466"
"4.51","400.5814","2.251533"
"4.52","400.1172","2.2564"
"4.53","399.6476","2.2615"
"4.54","399.1826","2.266567"
"4.55","398.7177","2.271633"
"4.56","398.256","2.2768"
"4.57","397.8189","2.281767"
"4.58","397.4112","2.286867"
"4.59","397.0202","2.291833"
"4.6","396.6236","2.296733"
"4.61","396.2159","2.301833"
"4.62","395.7931","2.306833"
"4.63","395.3552","2.3117"
"4.64","394.9078","2.316633"
"4.65","394.4619","2.321533"
"4.66","394.0129","2.326467"
"4.67","393.5448","2.331567"
"4.68","393.0545","2.336467"
"4.69","392.5618","2.341467"
"4.7","392.0913","2.346533"
"4.71","391.6486","2.351533"
"4.72","391.2195","2.356633"
"4.73","390.7919","2.361633"
"4.74","390.3794","2.366533"
"4.75","389.9892","2.371633"
"4.76","389.6125","2.376667"
"4.77","389.231","2.381733"
"4.78","388.8353","2.386867"
"4.79","388.4395","2.391833"
"4.8","388.0548","2.396767"
"4.81","387.6813","2.4017"
"4.82","387.3007","2.4065"
"4.83","386.8929","2.411533"
"4.84","386.4471","2.4166"
"4.85","385.9758","2.421367"
"4.86","385.5109","2.4264"
"4.87","385.081","2.4314"
"4.88","384.6796","2.436467"
"4.89","384.2783","2.441567"
"4.9","383.8762","2.4466"
"4.91","383.5002","2.451633"
"4.92","383.1673","2.4568"
"4.93","382.8597","2.461833"
"4.94","382.5498","2.466933"
"4.95","382.2223","2.471933"
"4.96","381.8774","2.476733"
"4.97","381.5198","2.4817"
"4.98","381.1367","2.486567"
"4.99","380.7155","2.491433"
"5","380.2443","2.496567"
"5.01","379.7364","2.5015"
"5.02","379.2238","2.506367"
"5.03","378.7351","2.5115"
"5.04","378.2741","2.5165"
"5.05","377.8235","2.5216"
"5.06","377.3753","2.526733"
"5.07","376.9517","2.531733"
"5.08","376.5615","2.536933"
"5.09","376.1895","2.541867"
"5.1","375.8216","2.546733"
"5.11","375.4544","2.5518"
"5.12","375.0793","2.556767"
"5.13","374.6788","2.561667"
"5.14","374.2568","2.5666"
"5.15","373.826","2.571433"
"5.16","373.3849","2.576367"
"5.17","372.9208","2.581533"
"5.18","372.4337","2.586467"
"5.19","371.9433","2.591433"
"5.2","371.4697","2.596467"
"5.21","371.0175","2.601467"
"5.22","370.5732","2.6066"
"5.23","370.1297","2.6117"
"5.24","369.7006","2.616667"
"5.25","369.2961","2.6218"
"5.26","368.9035","2.626833"
"5.27","368.499","2.631833"
"5.28","368.0722","2.636967"
"5.29","367.62","2.6419"
"5.3","367.1495","2.6468"
"5.31","366.6639","2.651733"
"5.32","366.1664","2.656567"
"5.33","365.6475","2.661467"
"5.34","365.0919","2.6664"
"5.35","364.5031","2.671233"
"5.36","363.8943","2.676333"
"5.37","363.2816","2.681433"
"5.38","362.6728","2.686567"
"5.39","362.076","2.691667"
"5.4","361.5006","2.6966"
"5.41","360.9355","2.701633"
"5.42","360.3506","2.706767"
"5.43","359.7236","2.7118"
"5.44","359.0544","2.716833"
"5.45","358.3678","2.721933"
"5.46","357.6875","2.7268"
"5.47","357.0175","2.731767"
"5.48","356.346","2.736633"
"5.49","355.6522","2.741433"
"5.5","354.9163","2.746533"
"5.51","354.1295","2.751533"
"5.52","353.3101","2.756367"
"5.53","352.5019","2.7614"
"5.54","351.731","2.766467"
"5.55","350.9935","2.771633"
"5.56","350.2703","2.776767"
"5.57","349.5685","2.781733"
"5.58","348.9026","2.786767"
"5.59","348.2707","2.791767"
"5.6","347.6453","2.796633"
"5.61","347.0031","2.801733"
"5.62","346.3411","2.8068"
"5.63","345.6688","2.8117"
"5.64","344.9877","2.816633"
"5.65","344.3034","2.821467"
"5.66","343.6057","2.826433"
"5.67","342.8785","2.831533"
"5.68","342.1203","2.836433"
"5.69","341.3447","2.841433"
"5.7","340.5706","2.8465"
"5.71","339.791","2.851567"
"5.72","338.9962","2.8567"
"5.73","338.192","2.861733"
"5.74","337.4147","2.866667"
"5.75","336.6868","2.871767"
"5.76","335.9898","2.8768"
"5.77","335.3","2.881833"
"5.78","334.6078","2.886967"
"5.79","333.9164","2.891867"
"5.8","333.2289","2.896733"
"5.81","332.5335","2.9017"
"5.82","331.8135","2.9065"
"5.83","331.0474","2.911567"
"5.84","330.2463","2.9166"
"5.85","329.442","2.9214"
"5.86","328.66","2.926333"
"5.87","327.8971","2.9314"
"5.88","327.123","2.9365"
"5.89","326.3211","2.941733"
"5.9","325.5201","2.9467"
"5.91","324.773","2.9517"
"5.92","324.0887","2.9568"
"5.93","323.4243","2.961833"
"5.94","322.7361","2.9669"
"5.95","322.0161","2.971933"
"5.96","321.2754","2.976733"
"5.97","320.526","2.981667"
"5.98","319.7733","2.986533"
"5.99","319.0128","2.991367"
"6","318.2252","2.9965"
"6.01","317.4106","3.001433"
"6.02","316.596","3.006367"
"6.03","315.8109","3.011433"
"6.04","315.0622","3.016433"
"6.05","314.3318","3.021567"
"6.06","313.611","3.0267"
"6.07","312.9045","3.0317"
"6.08","312.2338","3.036833"
"6.09","311.602","3.041767"
"6.1","310.9876","3.0466"
"6.11","310.3542","3.051733"
"6.12","309.6755","3.056767"
"6.13","308.9333","3.0617"
"6.14","308.125","3.066733"
"6.15","307.258","3.071533"
"6.16","306.3305","3.076467"
"6.17","305.3292","3.081567"
"6.18","304.2499","3.086433"
"6.19","303.1381","3.091433"
"6.2","302.0612","3.096433"
"6.21","301.0575","3.101433"
"6.22","300.115","3.106633"
"6.23","299.2161","3.111733"
"6.24","298.3602","3.1167"
"6.25","297.5567","3.121767"
"6.26","296.7978","3.1268"
"6.27","296.0594","3.131833"
"6.28","295.314","3.1369"
"6.29","294.559","3.141933"
"6.3","293.7961","3.146867"
"6.31","293.0117","3.151833"
"6.32","292.2074","3.156667"
"6.33","291.4","3.161567"
"6.34","290.5949","3.1665"
"6.35","289.77","3.1713"
"6.36","288.9117","3.1764"
"6.37","288.0263","3.181433"
"6.38","287.1418","3.1865"
"6.39","286.2875","3.191633"
"6.4","285.4808","3.1966"
"6.41","284.7091","3.201633"
"6.42","283.9319","3.2068"
"6.43","283.1284","3.211833"
"6.44","282.313","3.2169"
"6.45","281.5262","3.221867"
"6.46","280.7887","3.2267"
"6.47","280.0949","3.2317"
"6.48","279.4242","3.236567"
"6.49","278.759","3.2414"
"6.5","278.0906","3.2465"
"6.51","277.4262","3.251467"
"6.52","276.7777","3.256367"
"6.53","276.1507","3.261467"
"6.54","275.5507","3.266567"
"6.55","274.9737","3.271667"
"6.56","274.4015","3.2768"
"6.57","273.8277","3.2818"
"6.58","273.2635","3.2868"
"6.59","272.7064","3.291767"
"6.6","272.1357","3.296633"
"6.61","271.523","3.3017"
"6.62","270.8411","3.3067"
"6.63","270.0822","3.3116"
"6.64","269.2572","3.316567"
"6.65","268.3703","3.321433"
"6.66","267.4047","3.326367"
"6.67","266.3501","3.3315"
"6.68","265.2272","3.336467"
"6.69","264.0526","3.341467"
"6.7","262.839","3.346533"
"6.71","261.6183","3.351533"
"6.72","260.4492","3.3567"
"6.73","259.3621","3.3617"
"6.74","258.3607","3.366667"
"6.75","257.4182","3.371767"
"6.76","256.5018","3.3768"
"6.77","255.5823","3.381833"
"6.78","254.6644","3.386933"
"6.79","253.7799","3.391867"
"6.8","252.9438","3.396767"
"6.81","252.138","3.401667"
"6.82","251.3274","3.4065"
"6.83","250.477","3.411533"
"6.84","249.5503","3.4166"
"6.85","248.5307","3.421367"
"6.86","247.4483","3.426367"
"6.87","246.3738","3.4314"
"6.88","245.3454","3.436467"
"6.89","244.3465","3.441667"
"6.9","243.3634","3.4467"
"6.91","242.4359","3.4517"
"6.92","241.5911","3.4568"
"6.93","240.798","3.461833"
"6.94","239.9921","3.466933"
"6.95","239.1497","3.471933"
"6.96","238.3089","3.4767"
"6.97","237.5007","3.481667"
"6.98","236.7091","3.486633"
"6.99","235.9001","3.4915"
"7","235.0656","3.496633"
"7.01","234.2304","3.501533"
"7.02","233.4205","3.506433"
"7.03","232.6226","3.511533"
"7.04","231.8001","3.516567"
"7.05","230.9465","3.5217"
"7.06","230.101","3.526767"
"7.07","229.3134","3.531733"
"7.08","228.6029","3.536867"
"7.09","227.956","3.541767"
"7.1","227.3496","3.5466"
"7.11","226.7702","3.551667"
"7.12","226.2012","3.5567"
"7.13","225.6227","3.561633"
"7.14","225.0274","3.566633"
"7.15","224.4051","3.5715"
"7.16","223.7296","3.576433"
"7.17","222.9802","3.581533"
"7.18","222.1783","3.586433"
"7.19","221.3725","3.591433"
"7.2","220.5944","3.596533"
"7.21","219.8354","3.601533"
"7.22","219.0495","3.6066"
"7.23","218.2047","3.611633"
"7.24","217.3313","3.6166"
"7.25","216.4904","3.621733"
"7.26","215.7148","3.626733"
"7.27","215.0043","3.631767"
"7.28","214.351","3.636933"
"7.29","213.7446","3.641833"
"7.3","213.182","3.646733"
"7.31","212.6519","3.6516"
"7.32","212.1409","3.656433"
"7.33","211.6243","3.6615"
"7.34","211.095","3.6665"
"7.35","210.5562","3.671333"
"7.36","209.9991","3.6764"
"7.37","209.3903","3.681433"
"7.38","208.7085","3.686533"
"7.39","207.9701","3.6917"
"7.4","207.2056","3.696633"
"7.41","206.4387","3.701667"
"7.42","205.6718","3.706833"
"7.43","204.8906","3.711867"
"7.44","204.0903","3.7169"
"7.45","203.317","3.721933"
"7.46","202.6335","3.726767"
"7.47","202.0486","3.731667"
"7.48","201.5225","3.7366"
"7.49","201.0171","3.741433"
"7.5","200.5156","3.746533"
"7.51","200.0221","3.751467"
"7.52","199.5428","3.756333"
"7.53","199.0906","3.761433"
"7.54","198.6718","3.766533"
"7.55","198.2745","3.771667"
"7.56","197.8771","3.7768"
"7.57","197.4519","3.781767"
"7.58","196.9679","3.7868"
"7.59","196.4124","3.791867"
"7.6","195.8044","3.7968"
"7.61","195.1424","3.801833"
"7.62","194.3707","3.8068"
"7.63","193.4751","3.8117"
"7.64","192.554","3.816633"
"7.65","191.7219","3.821533"
"7.66","191.0019","3.826433"
"7.67","190.3486","3.8315"
"7.68","189.7271","3.8364"
"7.69","189.1255","3.841367"
"7.7","188.5462","3.8464"
"7.71","187.997","3.851433"
"7.72","187.4805","3.856567"
"7.73","186.998","3.861667"
"7.74","186.5546","3.866633"
"7.75","186.1517","3.871733"
"7.76","185.7766","3.8768"
"7.77","185.4046","3.881833"
"7.78","184.9985","3.886933"
"7.79","184.5042","3.8918"
"7.8","183.8795","3.8967"
"7.81","183.1389","3.901633"
"7.82","182.3028","3.9065"
"7.83","181.3698","3.911567"
"7.84","180.3835","3.916633"
"7.85","179.4402","3.921467"
"7.86","178.616","3.9264"
"7.87","177.9207","3.931367"
"7.88","177.3143","3.936433"
"7.89","176.7627","3.941633"
"7.9","176.2621","3.9466"
"7.91","175.8202","3.951667"
"7.92","175.4324","3.9568"
"7.93","175.0843","3.9618"
"7.94","174.7545","3.9669"
"7.95","174.4262","3.9719"
"7.96","174.0901","3.9767"
"7.97","173.7364","3.9817"
"7.98","173.3454","3.986567"
"7.99","172.8487","3.991433"
"8","172.1549","3.996567"
"8.01","171.2743","4.001534"
"8.02","170.3644","4.006433"
"8.03","169.5784","4.0115"
"8.04","168.914","4.0165"
"8.05","168.283","4.021633"
"8.06","167.6591","4.026767"
"8.07","167.0853","4.031767"
"8.08","166.5775","4.036867"
"8.09","166.107","4.041833"
"8.1","165.6207","4.0467"
"8.11","165.0675","4.051733"
"8.12","164.4286","4.056767"
"8.13","163.7459","4.0617"
"8.14","163.099","4.066667"
"8.15","162.5347","4.0715"
"8.16","162.0388","4.076433"
"8.17","161.5723","4.081567"
"8.18","161.0923","4.086467"
"8.19","160.567","4.091434"
"8.2","159.9868","4.0965"
"8.21","159.3431","4.101467"
"8.22","158.6318","4.106633"
"8.23","157.8871","4.1117"
"8.24","157.1767","4.1167"
"8.25","156.5345","4.121833"
"8.26","155.9559","4.126867"
"8.27","155.4386","4.131834"
"8.28","154.9816","4.136967"
"8.29","154.5723","4.141867"
"8.3","154.1885","4.1468"
"8.31","153.8181","4.1517"
"8.32","153.4549","4.156567"
"8.33","153.0822","4.161633"
"8.34","152.6777","4.166567"
"8.35","152.2541","4.1713"
"8.36","151.8361","4.176367"
"8.37","151.4109","4.181433"
"8.38","150.9364","4.186433"
"8.39","150.3984","4.1916"
"8.4","149.8485","4.196533"
"8.41","149.3279","4.2016"
"8.42","148.7931","4.2068"
"8.43","148.1827","4.211833"
"8.44","147.5143","4.216866"
"8.45","146.8674","4.221933"
"8.46","146.2921","4.2268"
"8.47","145.7882","4.231767"
"8.48","145.3336","4.236567"
"8.49","144.9005","4.241367"
"8.5","144.4546","4.246467"
"8.51","143.985","4.251433"
"8.52","143.5121","4.256267"
"8.53","143.0535","4.2614"
"8.54","142.5981","4.2665"
"8.55","142.1014","4.2716"
"8.56","141.534","4.2767"
"8.57","140.9102","4.281667"
"8.58","140.2728","4.286767"
"8.59","139.6616","4.2919"
"8.6","139.0807","4.2968"
"8.61","138.5045","4.301833"
"8.62","137.9116","4.306734"
"8.63","137.3323","4.3116"
"8.64","136.8078","4.3166"
"8.65","136.3365","4.3215"
"8.66","135.8938","4.3264"
"8.67","135.4504","4.3315"
"8.68","134.9823","4.336467"
"8.69","134.4585","4.341467"
"8.7","133.8617","4.346533"
"8.71","133.2037","4.351567"
"8.72","132.5186","4.356733"
"8.73","131.8518","4.361733"
"8.74","131.2327","4.3667"
"8.75","130.6613","4.3718"
"8.76","130.1154","4.3768"
"8.77","129.5654","4.381867"
"8.78","129.0051","4.3869"
"8.79","128.4639","4.3918"
"8.8","127.9807","4.396733"
"8.81","127.5722","4.4017"
"8.82","127.2154","4.406567"
"8.83","126.8792","4.411567"
"8.84","126.5605","4.416634"
"8.85","126.2673","4.421467"
"8.86","126.001","4.426434"
"8.87","125.7555","4.431433"
"8.88","125.5163","4.436467"
"8.89","125.2651","4.441633"
"8.9","124.9901","4.446633"
"8.91","124.6889","4.451667"
"8.92","124.3512","4.4568"
"8.93","123.9578","4.4618"
"8.94","123.4897","4.466866"
"8.95","122.9723","4.471833"
"8.96","122.4422","4.476634"
"8.97","121.9209","4.4816"
"8.98","121.4083","4.486434"
"8.99","120.8981","4.491333"
"9","120.3752","4.4965"
"9.01","119.8268","4.501433"
"9.02","119.2697","4.506333"
"9.03","118.7507","4.511467"
"9.04","118.2977","4.516533"
"9.05","117.8885","4.521633"
"9.06","117.4935","4.5267"
"9.07","117.0961","4.5317"
"9.08","116.6884","4.536867"
"9.09","116.2577","4.541867"
"9.1","115.7904","4.5467"
"9.11","115.2992","4.5518"
"9.12","114.7978","4.5568"
"9.13","114.2963","4.561733"
"9.14","113.8107","4.566733"
"9.15","113.3529","4.5715"
"9.16","112.8141","4.576467"
"9.17","111.8914","4.5816"
"9.18","110.333","4.586467"
"9.19","108.3597","4.591467"
"9.2","106.5222","4.596567"
"9.21","105.1084","4.601533"
"9.22","103.9966","4.606633"
"9.23","103.031","4.611633"
"9.24","102.1687","4.616567"
"9.25","101.3811","4.6217"
"9.26","100.6238","4.6268"
"9.27","99.90057","4.6319"
"9.28","99.24412","4.636967"
"9.29","98.65919","4.641867"
"9.3","98.10448","4.6468"
"9.31","97.55373","4.6517"
"9.32","97.00696","4.656567"
"9.33","96.47211","4.661633"
"9.34","95.92136","4.6666"
"9.35","95.30386","4.671333"
"9.36","94.56793","4.676333"
"9.37","93.61903","4.681467"
"9.38","92.22507","4.6865"
"9.39","90.18739","4.691633"
"9.4","87.80717","4.6966"
"9.41","85.80764","4.701567"
"9.42","84.58376","4.706767"
"9.43","83.90268","4.711833"
"9.44","83.37975","4.716866"
"9.45","82.87589","4.721867"
"9.46","82.42925","4.726733"
"9.47","82.06686","4.7317"
"9.48","81.75134","4.736533"
"9.49","81.43584","4.7414"
"9.5","81.13623","4.7465"
"9.51","80.88509","4.7515"
"9.52","80.6888","4.756367"
"9.53","80.51952","4.761434"
"9.54","80.35183","4.7665"
"9.55","80.19527","4.7716"
"9.56","80.07526","4.776767"
"9.57","79.98387","4.7817"
"9.58","79.88294","4.786833"
"9.59","79.76134","4.7919"
"9.6","79.65406","4.7968"
"9.61","79.5714","4.8018"
"9.62","79.47366","4.806767"
"9.63","79.33458","4.811634"
"9.64","79.18755","4.8166"
"9.65","79.0747","4.821434"
"9.66","78.98808","4.826367"
"9.67","78.89191","4.831467"
"9.68","78.7735","4.836433"
"9.69","78.65588","4.8414"
"9.7","78.56767","4.8465"
"9.71","78.49455","4.851533"
"9.72","78.40792","4.8567"
"9.73","78.29587","4.8617"
"9.74","78.17984","4.866633"
"9.75","78.05824","4.871733"
"9.76","77.89771","4.876767"
"9.77","77.68313","4.881834"
"9.78","77.45981","4.886933"
"9.79","77.27305","4.891867"
"9.8","77.1149","4.8968"
"9.81","76.94324","4.901667"
"9.82","76.73979","4.906466"
"9.83","76.49342","4.911467"
"9.84","76.2097","4.916567"
"9.85","75.92201","4.921467"
"9.86","75.6677","4.9264"
"9.87","75.46663","4.931367"
"9.88","75.30292","4.936467"
"9.89","75.16782","4.941633"
"9.9","75.04622","4.946633"
"9.91","74.93019","4.951667"
"9.92","74.80939","4.956767"
"9.93","74.69415","4.961833"
"9.94","74.59164","4.9669"
"9.95","74.48594","4.971933"
"9.96","74.36434","4.9768"
"9.97","74.23719","4.981767"
"9.98","74.12672","4.9866"
"9.99","74.02023","4.9915"
"10","73.88671","4.996533"
"10.01","73.71267","5.0015"
"10.02","73.52511","5.0064"
"10.03","73.34709","5.011467"
"10.04","73.18417","5.0165"
"10.05","73.02205","5.021567"
"10.06","72.85436","5.0267"
"10.07","72.67793","5.031667"
"10.08","72.4872","5.0368"
"10.09","72.27898","5.0419"
"10.1","72.04135","5.046733"
"10.11","71.76479","5.0517"
"10.12","71.42067","5.0567"
"10.13","70.99708","5.061634"
"10.14","70.53375","5.066633"
"10.15","70.11652","5.0715"
"10.16","69.7883","5.076433"
"10.17","69.52763","5.081567"
"10.18","69.30033","5.086467"
"10.19","69.09132","5.091467"
"10.2","68.89899","5.0965"
"10.21","68.71859","5.1015"
"10.22","68.54057","5.1066"
"10.23","68.3705","5.111667"
"10.24","68.21791","5.116633"
"10.25","68.08519","5.121733"
"10.26","67.95486","5.126767"
"10.27","67.81896","5.131767"
"10.28","67.68068","5.136867"
"10.29","67.54001","5.1418"
"10.3","67.39696","5.146733"
"10.31","67.2412","5.151667"
"10.32","67.04172","5.156533"
"10.33","66.75085","5.1616"
"10.34","66.37415","5.1666"
"10.35","65.97201","5.171367"
"10.36","65.59531","5.1764"
"10.37","65.24563","5.1815"
"10.38","64.90707","5.186533"
"10.39","64.56534","5.191633"
"10.4","64.21327","5.196633"
"10.41","63.84929","5.201667"
"10.42","63.46623","5.206867"
"10.43","63.06012","5.211867"
"10.44","62.63256","5.2169"
"10.45","62.17957","5.2219"
"10.46","61.69398","5.226733"
"10.47","61.15913","5.231733"
"10.48","60.57103","5.2366"
"10.49","59.96148","5.241434"
"10.5","59.36702","5.246467"
"10.51","58.81389","5.251467"
"10.52","58.30765","5.2564"
"10.53","57.85068","5.261467"
"10.54","57.42947","5.2665"
"10.55","57.02813","5.271634"
"10.56","56.63792","5.276767"
"10.57","56.25884","5.281667"
"10.58","55.89485","5.286767"
"10.59","55.53405","5.2919"
"10.6","55.16211","5.2968"
"10.61","54.75839","5.301834"
"10.62","54.30539","5.306767"
"10.63","53.79041","5.311634"
"10.64","53.21423","5.316633"
"10.65","52.57209","5.321533"
"10.66","51.84253","5.326467"
"10.67","51.01283","5.331533"
"10.68","50.11638","5.336433"
"10.69","49.21198","5.341367"
"10.7","48.37354","5.3465"
"10.71","47.66941","5.351533"
"10.72","47.17191","5.3567"
"10.73","46.89137","5.3617"
"10.74","46.71891","5.366633"
"10.75","46.44791","5.3717"
"10.76","45.53397","5.376767"
"10.77","42.45043","5.381834"
"10.78","35.5792","5.3869"
"10.79","26.19823","5.3918"
"10.8","18.3932","5.396733"
"10.81","14.5491","5.401667"
"10.82","13.57317","5.4065"
"10.83","13.58827","5.411533"
"10.84","13.74483","5.416667"
"10.85","13.81159","5.421467"
"10.86","13.7647","5.426367"
"10.87","13.67569","5.4314"
"10.88","13.53264","5.4365"
"10.89","13.26958","5.441633"
"10.9","12.90878","5.446633"
"10.91","12.5432","5.451633"
"10.92","12.2261","5.456767"
"10.93","11.94954","5.461833"
"10.94","11.70874","5.466933"
"10.95","11.52833","5.4719"
"10.96","11.39005","5.4767"
"10.97","11.2319","5.481633"
"10.98","11.05547","5.4865"
"10.99","10.90844","5.491367"
"11","10.79241","5.4965"
"11.01","10.67877","5.5015"
"11.02","10.59453","5.506433"
"11.03","10.57704","5.511533"
"11.04","10.58737","5.5166"
"11.05","10.5683","5.521667"
"11.06","10.5389","5.526733"
"11.07","10.5389","5.531667"
"11.08","10.54764","5.5368"
"11.09","10.53015","5.5419"
"11.1","10.51188","5.546767"
"11.11","10.52777","5.551767"
"11.12","10.554","5.556734"
"11.13","10.54843","5.561634"
"11.14","10.53174","5.566633"
"11.15","10.5389","5.5715"
"11.16","10.55479","5.5765"
"11.17","10.53731","5.5816"
"11.18","10.49439","5.586534"
"11.19","10.47452","5.591467"
"11.2","10.48962","5.596533"
"11.21","10.50393","5.6015"
"11.22","10.51188","5.6066"
"11.23","10.53174","5.611633"
"11.24","10.56512","5.6166"
"11.25","10.57863","5.621767"
"11.26","10.56592","5.626833"
"11.27","10.55717","5.631867"
"11.28","10.5683","5.636967"
"11.29","10.57704","5.641833"
"11.3","10.57227","5.646733"
"11.31","10.5683","5.651633"
"11.32","10.5683","5.656434"
"11.33","10.56353","5.661467"
"11.34","10.55241","5.6665"
"11.35","10.54843","5.671233"
"11.36","10.54843","5.676267"
"11.37","10.54049","5.681367"
"11.38","10.52777","5.686433"
"11.39","10.52936","5.6916"
"11.4","10.54287","5.696567"
"11.41","10.55002","5.7016"
"11.42","10.54843","5.7068"
"11.43","10.55082","5.711833"
"11.44","10.55956","5.716866"
"11.45","10.55956","5.7219"
"11.46","10.54287","5.7267"
"11.47","10.52539","5.7317"
"11.48","10.523","5.7366"
"11.49","10.5238","5.741434"
"11.5","10.51505","5.746533"
"11.51","10.5079","5.7515"
"11.52","10.51188","5.756367"
"11.53","10.51664","5.761467"
"11.54","10.51188","5.766533"
"11.55","10.50711","5.771667"
"11.56","10.51426","5.776733"
"11.57","10.52777","5.7817"
"11.58","10.53015","5.7868"
"11.59","10.5238","5.7919"
"11.6","10.523","5.7968"
"11.61","10.52618","5.8018"
"11.62","10.52618","5.806767"
"11.63","10.52539","5.811634"
"11.64","10.52777","5.816667"
"11.65","10.52936","5.821567"
"11.66","10.52936","5.8265"
"11.67","10.53015","5.831567"
"11.68","10.53015","5.836467"
"11.69","10.52936","5.841434"
"11.7","10.53413","5.846533"
"11.71","10.54843","5.851567"
"11.72","10.56751","5.856733"
"11.73","10.57466","5.861767"
"11.74","10.56592","5.866667"
"11.75","10.55638","5.871767"
"11.76","10.55956","5.876833"
"11.77","10.56989","5.8819"
"11.78","10.57307","5.886933"
"11.79","10.56592","5.8918"
"11.8","10.55638","5.896733"
"11.81","10.55876","5.9016"
"11.82","10.56989","5.906434"
"11.83","10.57625","5.911467"
"11.84","10.57069","5.9165"
"11.85","10.56194","5.921367"
"11.86","10.55956","5.9263"
"11.87","10.56115","5.931334"
"11.88","10.55956","5.936433"
"11.89","10.55479","5.9416"
"11.9","10.55082","5.9466"
"11.91","10.55479","5.951667"
"11.92","10.56115","5.956833"
"11.93","10.56512","5.961867"
"11.94","10.56512","5.966967"
"11.95","10.55717","5.971967"
"11.96","10.54605","5.9767"
"11.97","10.54128","5.981633"
"11.98","10.54287","5.986533"
"11.99","10.54525","5.9914"
"12","10.54287","5.9965"
"12.01","10.53731","6.001467"
"12.02","10.53254","6.006333"
"12.03","10.5238","6.011434"
"12.04","10.51267","6.016467"
"12.05","10.51267","6.0216"
"12.06","10.52141","6.0267"
"12.07","10.52777","6.031633"
"12.08","10.52539","6.036767"
"12.09","10.51823","6.041934"
"12.1","10.50949","6.0468"
"12.11","10.50711","6.0518"
"12.12","10.51029","6.056833"
"12.13","10.51664","6.061733"
"12.14","10.51903","6.0667"
"12.15","10.51426","6.071533"
"12.16","10.51505","6.076467"
"12.17","10.52539","6.081567"
"12.18","10.53492","6.086467"
"12.19","10.53492","6.0914"
"12.2","10.53174","6.096467"
"12.21","10.53174","6.1015"
"12.22","10.53413","6.106633"
"12.23","10.53492","6.111667"
"12.24","10.53651","6.1166"
"12.25","10.5389","6.1217"
"12.26","10.54287","6.126767"
"12.27","10.54843","6.1318"
"12.28","10.55479","6.1369"
"12.29","10.56115","6.141867"
"12.3","10.56353","6.146833"
"12.31","10.56512","6.151767"
"12.32","10.5683","6.156533"
"12.33","10.57307","6.161533"
"12.34","10.57466","6.1666"
"12.35","10.57625","6.171333"
"12.36","10.57943","6.176333"
"12.37","10.5834","6.181467"
"12.38","10.57943","6.186533"
"12.39","10.56989","6.191633"
"12.4","10.56115","6.1966"
"12.41","10.55638","6.2016"
"12.42","10.55002","6.206767"
"12.43","10.54128","6.211767"
"12.44","10.5389","6.216834"
"12.45","10.54128","6.221867"
"12.46","10.54287","6.226733"
"12.47","10.5389","6.231733"
"12.48","10.54128","6.2366"
"12.49","10.54764","6.241467"
"12.5","10.54843","6.2465"
"12.51","10.54287","6.251433"
"12.52","10.54049","6.256367"
"12.53","10.54605","6.261467"
"12.54","10.54843","6.266567"
"12.55","10.54128","6.271667"
"12.56","10.53492","6.276767"
"12.57","10.53492","6.2817"
"12.58","10.53254","6.286767"
"12.59","10.52777","6.291867"
"12.6","10.52936","6.2968"
"12.61","10.53492","6.301767"
"12.62","10.5389","6.306734"
"12.63","10.53731","6.311634"
"12.64","10.54128","6.316633"
"12.65","10.54605","6.321434"
"12.66","10.54605","6.326367"
"12.67","10.54287","6.331433"
"12.68","10.54128","6.336367"
"12.69","10.54366","6.341367"
"12.7","10.54525","6.346434"
"12.71","10.54605","6.351533"
"12.72","10.55082","6.356633"
"12.73","10.554","6.361667"
"12.74","10.55002","6.3667"
"12.75","10.54605","6.3718"
"12.76","10.55082","6.376833"
"12.77","10.56115","6.381867"
"12.78","10.56592","6.386967"
"12.79","10.56512","6.391867"
"12.8","10.56115","6.396767"
"12.81","10.55876","6.401667"
"12.82","10.554","6.406467"
"12.83","10.54605","6.4115"
"12.84","10.54287","6.416567"
"12.85","10.54366","6.421433"
"12.86","10.54843","6.4264"
"12.87","10.554","6.4314"
"12.88","10.55717","6.4365"
"12.89","10.56353","6.4417"
"12.9","10.5683","6.446667"
"12.91","10.56353","6.451667"
"12.92","10.55241","6.456833"
"12.93","10.54605","6.461867"
"12.94","10.54843","6.466933"
"12.95","10.55082","6.471967"
"12.96","10.54843","6.476767"
"12.97","10.54287","6.481733"
"12.98","10.53731","6.486667"
"12.99","10.53254","6.4915"
"13","10.52618","6.496567"
"13.01","10.52141","6.501534"
"13.02","10.5238","6.506433"
"13.03","10.53254","6.511533"
"13.04","10.53731","6.5165"
"13.05","10.53492","6.521567"
"13.06","10.53174","6.5267"
"13.07","10.52777","6.531667"
"13.08","10.523","6.5368"
"13.09","10.51664","6.541867"
"13.1","10.51267","6.546667"
"13.11","10.51029","6.551667"
"13.12","10.5079","6.5567"
"13.13","10.50711","6.561634"
"13.14","10.51188","6.566633"
"13.15","10.51664","6.571467"
"13.16","10.51426","6.576367"
"13.17","10.50711","6.5815"
"13.18","10.5079","6.586433"
"13.19","10.51505","6.591434"
"13.2","10.52141","6.596567"
"13.21","10.523","6.601567"
"13.22","10.5238","6.6066"
"13.23","10.52777","6.611633"
"13.24","10.52777","6.616633"
"13.25","10.523","6.621767"
"13.26","10.51903","6.626833"
"13.27","10.523","6.6318"
"13.28","10.53174","6.636867"
"13.29","10.54287","6.641767"
"13.3","10.55241","6.6467"
"13.31","10.55876","6.651633"
"13.32","10.55717","6.656533"
"13.33","10.554","6.661567"
"13.34","10.55638","6.666567"
"13.35","10.56592","6.6713"
"13.36","10.57466","6.676367"
"13.37","10.56989","6.6815"
"13.38","10.56194","6.686567"
"13.39","10.55956","6.6917"
"13.4","10.56115","6.696667"
"13.41","10.55638","6.701667"
"13.42","10.55002","6.706833"
"13.43","10.54525","6.711867"
"13.44","10.5389","6.716933"
"13.45","10.53174","6.721933"
"13.46","10.52936","6.7267"
"13.47","10.52936","6.731633"
"13.48","10.52777","6.736534"
"13.49","10.53015","6.7414"
"13.5","10.5389","6.746533"
"13.51","10.54525","6.7515"
"13.52","10.54128","6.756367"
"13.53","10.53254","6.761467"
"13.54","10.52936","6.7665"
"13.55","10.53015","6.771634"
"13.56","10.53015","6.7767"
"13.57","10.5238","6.7817"
"13.58","10.52141","6.786767"
"13.59","10.52539","6.791833"
"13.6","10.53015","6.796767"
"13.61","10.52777","6.801834"
"13.62","10.523","6.806833"
"13.63","10.523","6.811733"
"13.64","10.52539","6.816667"
"13.65","10.52539","6.821533"
"13.66","10.52539","6.826433"
"13.67","10.52777","6.831467"
"13.68","10.53015","6.836333"
"13.69","10.53413","6.8413"
"13.7","10.5389","6.846367"
"13.71","10.5389","6.8514"
"13.72","10.53731","6.856567"
"13.73","10.5389","6.861633"
"13.74","10.54128","6.866633"
"13.75","10.54525","6.871767"
"13.76","10.55002","6.876767"
"13.77","10.55002","6.8818"
"13.78","10.54366","6.8869"
"13.79","10.5389","6.891833"
"13.8","10.54128","6.896733"
"13.81","10.54843","6.901633"
"13.82","10.55241","6.906467"
"13.83","10.55082","6.911567"
"13.84","10.554","6.916634"
"13.85","10.55876","6.921467"
"13.86","10.56512","6.926434"
"13.87","10.56751","6.931467"
"13.88","10.56751","6.936533"
"13.89","10.56989","6.941633"
"13.9","10.57466","6.9466"
"13.91","10.57307","6.951633"
"13.92","10.56592","6.956767"
"13.93","10.55717","6.9618"
"13.94","10.55241","6.966933"
"13.95","10.55082","6.971967"
"13.96","10.55002","6.9767"
"13.97","10.55002","6.981667"
"13.98","10.54843","6.9866"
"13.99","10.54764","6.991467"
"14","10.54764","6.996567"
"14.01","10.54843","7.001467"
"14.02","10.55002","7.0063"
"14.03","10.54366","7.009267"
"14.04","10.53015","7.010133"