File: degradation_testing/tensile_testing/PLA/PLA_Acetone/PLA-A-5.csv
"1 _ 1",,
"Time","Force","Stroke"
"sec","N","mm"
"0","0.3568331","0.0001"
"0.01","0.3528595","0.002133333"
"0.02","0.3600121","0.006466667"
"0.03","0.4482269","0.01156667"
"0.04","0.8765857","0.0167"
"0.05","2.10921","0.0216"
"0.06","4.490217","0.02666667"
"0.07","7.885297","0.03176667"
"0.08","11.81126","0.03663334"
"0.09","15.85166","0.04163333"
"0.1","19.84278","0.04646667"
"0.11","23.74967","0.05136667"
"0.12","27.55562","0.05646667"
"0.13","31.25588","0.06136667"
"0.14","34.86077","0.06633333"
"0.15","38.40208","0.0714"
"0.16","41.90604","0.07636667"
"0.17","45.3647","0.0815"
"0.18","48.666","0.0866"
"0.19","51.48093","0.09163333"
"0.2","53.38113","0.09676667"
"0.21","54.24817","0.1018"
"0.22","54.4556","0.1068"
"0.23","54.50169","0.1119333"
"0.24","54.60183","0.1169"
"0.25","54.7115","0.1218"
"0.26","54.76554","0.1267667"
"0.27","54.78541","0.1315667"
"0.28","54.79892","0.1366"
"0.29","54.81005","0.1416333"
"0.3","54.80766","0.1464"
"0.31","54.80051","0.1514"
"0.32","54.79654","0.1565"
"0.33","54.79495","0.1615667"
"0.34","54.79415","0.1667"
"0.35","54.79654","0.1716667"
"0.36","54.80051","0.1766667"
"0.37","54.79256","0.1818"
"0.38","54.77428","0.1868333"
"0.39","54.75839","0.1918667"
"0.4","54.74567","0.1969667"
"0.41","54.72581","0.2018333"
"0.42","54.69402","0.2067667"
"0.43","54.66223","0.2116333"
"0.44","54.63441","0.2164333"
"0.45","54.60978","0.2215"
"0.46","54.5915","0.2265"
"0.47","54.58196","0.2313333"
"0.48","54.57957","0.2364333"
"0.49","54.57957","0.2415333"
"0.5","54.58037","0.2466667"
"0.51","54.58276","0.2517667"
"0.52","54.58673","0.2566667"
"0.53","54.5915","0.2617333"
"0.54","54.60024","0.2668333"
"0.55","54.61375","0.2717333"
"0.56","54.63203","0.2767333"
"0.57","54.6511","0.2817667"
"0.58","54.66302","0.2866667"
"0.59","54.66779","0.2916667"
"0.6","54.66541","0.2965"
"0.61","54.66302","0.3014"
"0.62","54.67336","0.3065"
"0.63","54.69004","0.3114"
"0.64","54.7115","0.3163667"
"0.65","54.74011","0.3215"
"0.66","54.77667","0.3265"
"0.67","54.81164","0.3316333"
"0.68","54.84581","0.3367"
"0.69","54.88634","0.3416667"
"0.7","54.92608","0.3467667"
"0.71","54.95071","0.3518667"
"0.72","54.96343","0.3569333"
"0.73","54.97297","0.3620333"
"0.74","54.98171","0.3668333"
"0.75","54.97773","0.3717333"
"0.76","54.96581","0.3767"
"0.77","54.96343","0.3815333"
"0.78","54.96979","0.3865333"
"0.79","54.96423","0.3916333"
"0.8","54.94197","0.3965"
"0.81","54.9229","0.4014"
"0.82","54.91018","0.4064333"
"0.83","54.8919","0.4115333"
"0.84","54.86329","0.4167333"
"0.85","54.83945","0.4216667"
"0.86","54.82833","0.4266667"
"0.87","54.82991","0.4318"
"0.88","54.86568","0.4369"
"0.89","54.97297","0.4419667"
"0.9","55.10648","0.4469667"
"0.91","55.20821","0.4518"
"0.92","55.42914","0.4567667"
"0.93","56.18811","0.4616667"
"0.94","57.85068","0.4665333"
"0.95","60.35487","0.4715333"
"0.96","63.28106","0.4764667"
"0.97","66.18579","0.4813"
"0.98","68.83463","0.4864"
"0.99","71.1759","0.4915"
"1","73.27557","0.4966"
"1.01","75.27272","0.5017"
"1.02","77.40736","0.5066333"
"1.03","79.99102","0.5117334"
"1.04","83.19378","0.5169"
"1.05","86.89006","0.5218"
"1.06","90.81443","0.5268334"
"1.07","94.77853","0.5318334"
"1.08","98.7045","0.5367"
"1.09","102.5542","0.5416667"
"1.1","106.3244","0.5465"
"1.11","110.0365","0.5514"
"1.12","113.7058","0.5565"
"1.13","117.3544","0.5614333"
"1.14","121.0133","0.5664333"
"1.15","124.712","0.5715333"
"1.16","128.4512","0.5765333"
"1.17","132.2166","0.5816666"
"1.18","135.9987","0.5867"
"1.19","139.7999","0.5915667"
"1.2","143.6122","0.5967"
"1.21","147.4118","0.6018333"
"1.22","151.1796","0.6068667"
"1.23","154.9236","0.6119667"
"1.24","158.6692","0.6168666"
"1.25","162.4242","0.6217334"
"1.26","166.1626","0.6267"
"1.27","169.843","0.6315"
"1.28","173.4265","0.6365"
"1.29","176.9082","0.6416"
"1.3","180.3279","0.6463333"
"1.31","183.7595","0.6512"
"1.32","187.2412","0.6562667"
"1.33","190.7547","0.6613667"
"1.34","194.2635","0.6665667"
"1.35","197.7793","0.6716"
"1.36","201.3461","0.6766"
"1.37","204.9732","0.6817667"
"1.38","208.6345","0.6868"
"1.39","212.2935","0.6918333"
"1.4","215.9198","0.6968667"
"1.41","219.4866","0.7018"
"1.42","222.9802","0.7067667"
"1.43","226.4158","0.7116333"
"1.44","229.8141","0.7164667"
"1.45","233.1821","0.7215334"
"1.46","236.5152","0.7265"
"1.47","239.8213","0.7313333"
"1.48","243.1202","0.7364"
"1.49","246.4207","0.7414667"
"1.5","249.7188","0.7465667"
"1.51","252.9963","0.7517334"
"1.52","256.2578","0.7567"
"1.53","259.5043","0.7618"
"1.54","262.7174","0.7669333"
"1.55","265.8717","0.7718667"
"1.56","268.9481","0.7768667"
"1.57","271.9458","0.7818667"
"1.58","274.8712","0.7867"
"1.59","277.741","0.7916667"
"1.6","280.5877","0.7965333"
"1.61","283.4503","0.8014667"
"1.62","286.3367","0.8065667"
"1.63","289.2113","0.8115"
"1.64","292.0373","0.8164667"
"1.65","294.8085","0.8215"
"1.66","297.5424","0.8265333"
"1.67","300.2596","0.8316666"
"1.68","302.968","0.8367667"
"1.69","305.6749","0.8416667"
"1.7","308.3849","0.8467333"
"1.71","311.0894","0.8517667"
"1.72","313.7676","0.8567667"
"1.73","316.387","0.8618667"
"1.74","318.946","0.8668333"
"1.75","321.463","0.8718"
"1.76","323.9504","0.8767"
"1.77","326.4054","0.8815"
"1.78","328.8261","0.8865667"
"1.79","331.2032","0.8916667"
"1.8","333.5325","0.8965"
"1.81","335.8269","0.9013333"
"1.82","338.1141","0.9063"
"1.83","340.395","0.9113"
"1.84","342.6425","0.9165"
"1.85","344.8486","0.9215333"
"1.86","347.0476","0.9265333"
"1.87","349.2792","0.9317"
"1.88","351.5355","0.9367334"
"1.89","353.7806","0.9418333"
"1.9","356.0003","0.9469"
"1.91","358.208","0.9517667"
"1.92","360.4142","0.9567667"
"1.93","362.6124","0.9616333"
"1.94","364.7892","0.9664667"
"1.95","366.9381","0.9715667"
"1.96","369.0465","0.9765"
"1.97","371.12","0.9813667"
"1.98","373.1815","0.9864333"
"1.99","375.2462","0.9915"
"2","377.3109","0.9965667"
"2.01","379.3661","1.001767"
"2.02","381.4236","1.006767"
"2.03","383.4955","1.011867"
"2.04","385.5817","1.016967"
"2.05","387.6686","1.021767"
"2.06","389.7468","1.026833"
"2.07","391.8171","1.031833"
"2.08","393.8707","1.036733"
"2.09","395.9036","1.041733"
"2.1","397.9278","1.046567"
"2.11","399.9519","1.051433"
"2.12","401.965","1.0566"
"2.13","403.9518","1.061533"
"2.14","405.9203","1.066467"
"2.15","407.8889","1.071567"
"2.16","409.8709","1.0765"
"2.17","411.8601","1.0816"
"2.18","413.8565","1.0867"
"2.19","415.868","1.091633"
"2.2","417.8929","1.096767"
"2.21","419.9258","1.1018"
"2.22","421.9564","1.106867"
"2.23","423.9758","1.111967"
"2.24","425.9849","1.116867"
"2.25","427.9931","1.1218"
"2.26","429.9951","1.126767"
"2.27","431.9819","1.131567"
"2.28","433.9433","1.136567"
"2.29","435.8737","1.141633"
"2.3","437.7866","1.146367"
"2.31","439.6979","1.151267"
"2.32","441.6212","1.1563"
"2.33","443.5484","1.161367"
"2.34","445.4652","1.166567"
"2.35","447.3758","1.171633"
"2.36","449.3149","1.176633"
"2.37","451.293","1.181767"
"2.38","453.2878","1.186733"
"2.39","455.2587","1.191733"
"2.4","457.1875","1.1968"
"2.41","459.0845","1.2017"
"2.42","460.9521","1.206667"
"2.43","462.7896","1.2116"
"2.44","464.6063","1.216467"
"2.45","466.4032","1.221567"
"2.46","468.1714","1.226533"
"2.47","469.919","1.231367"
"2.48","471.6698","1.236433"
"2.49","473.4532","1.241467"
"2.5","475.2588","1.246633"
"2.51","477.0637","1.251767"
"2.52","478.8748","1.2567"
"2.53","480.7162","1.261767"
"2.54","482.5926","1.266867"
"2.55","484.4769","1.2718"
"2.56","486.3517","1.2768"
"2.57","488.2185","1.281767"
"2.58","490.0861","1.286633"
"2.59","491.9426","1.291633"
"2.6","493.78","1.296467"
"2.61","495.5967","1.3014"
"2.62","497.3889","1.3065"
"2.63","499.15","1.311467"
"2.64","500.8833","1.3164"
"2.65","502.6078","1.3215"
"2.66","504.3292","1.326533"
"2.67","506.0371","1.331633"
"2.68","507.7275","1.3367"
"2.69","509.4234","1.3417"
"2.7","511.1472","1.346767"
"2.71","512.8884","1.351767"
"2.72","514.6209","1.356767"
"2.73","516.3351","1.361867"
"2.74","518.0351","1.366833"
"2.75","519.7278","1.3718"
"2.76","521.4103","1.376733"
"2.77","523.0808","1.3815"
"2.78","524.7331","1.3866"
"2.79","526.3599","1.391667"
"2.8","527.9557","1.396533"
"2.81","529.5396","1.401433"
"2.82","531.1442","1.406367"
"2.83","532.7701","1.411433"
"2.84","534.3882","1.4166"
"2.85","535.9792","1.421633"
"2.86","537.5656","1.426667"
"2.87","539.1741","1.431833"
"2.88","540.8017","1.436867"
"2.89","542.4229","1.441933"
"2.9","544.0187","1.4469"
"2.91","545.5891","1.4517"
"2.92","547.1357","1.456667"
"2.93","548.6456","1.461567"
"2.94","550.1104","1.466433"
"2.95","551.5297","1.471533"
"2.96","552.9181","1.4765"
"2.97","554.2986","1.4814"
"2.98","555.6854","1.4865"
"2.99","557.0698","1.4915"
"3","558.4319","1.496567"
"3.01","559.7766","1.501733"
"3.02","561.1277","1.5067"
"3.03","562.4898","1.511833"
"3.04","563.8448","1.5169"
"3.05","565.1808","1.5217"
"3.06","566.5064","1.526767"
"3.07","567.8201","1.5318"
"3.08","569.1123","1.536667"
"3.09","570.3775","1.541633"
"3.1","571.634","1.546467"
"3.11","572.8912","1.551367"
"3.12","574.1262","1.556533"
"3.13","575.2945","1.561467"
"3.14","576.3713","1.566433"
"3.15","577.3544","1.5715"
"3.16","578.2533","1.576467"
"3.17","579.0623","1.581567"
"3.18","579.7776","1.586667"
"3.19","580.3998","1.591667"
"3.2","580.922","1.596833"
"3.21","581.3281","1.601867"
"3.22","581.5935","1.6069"
"3.23","581.6841","1.612"
"3.24","581.5577","1.616933"
"3.25","581.1691","1.621833"
"3.26","580.4738","1.6268"
"3.27","579.4255","1.6316"
"3.28","577.9814","1.636633"
"3.29","576.1218","1.641667"
"3.3","573.868","1.646433"
"3.31","571.2636","1.6514"
"3.32","568.3621","1.6564"
"3.33","565.2166","1.6614"
"3.34","561.8747","1.666633"
"3.35","558.4001","1.6716"
"3.36","554.8604","1.6766"
"3.37","551.3072","1.681833"
"3.38","547.7659","1.6869"
"3.39","544.2444","1.691967"
"3.4","540.777","1.696967"
"3.41","537.3979","1.701767"
"3.42","534.1132","1.7067"
"3.43","530.8994","1.7116"
"3.44","527.7467","1.716467"
"3.45","524.6616","1.721567"
"3.46","521.6622","1.726533"
"3.47","518.7734","1.7314"
"3.48","516.0204","1.7365"
"3.49","513.4026","1.741533"
"3.5","510.8969","1.7466"
"3.51","508.4872","1.751767"
"3.52","506.1777","1.756767"
"3.53","503.9748","1.761867"
"3.54","501.8703","1.7669"
"3.55","499.8525","1.771767"
"3.56","497.8998","1.7768"
"3.57","495.9917","1.781767"
"3.58","494.1185","1.786633"
"3.59","492.2747","1.7916"
"3.6","490.458","1.7965"
"3.61","488.6619","1.801433"
"3.62","486.8889","1.806533"
"3.63","485.1453","1.811467"
"3.64","483.4453","1.8165"
"3.65","481.7971","1.821567"
"3.66","480.1925","1.826533"
"3.67","478.6158","1.831633"
"3.68","477.0637","1.836733"
"3.69","475.5457","1.841633"
"3.7","474.0675","1.846733"
"3.71","472.6164","1.851767"
"3.72","471.1715","1.856833"
"3.73","469.7156","1.861967"
"3.74","468.2541","1.866867"
"3.75","466.8045","1.871767"
"3.76","465.3684","1.8767"
"3.77","463.9315","1.881567"
"3.78","462.482","1.886533"
"3.79","461.0213","1.8916"
"3.8","459.5709","1.896467"
"3.81","458.1507","1.901467"
"3.82","456.7703","1.906433"
"3.83","455.4312","1.911433"
"3.84","454.1135","1.916567"
"3.85","452.8038","1.9216"
"3.86","451.5068","1.9266"
"3.87","450.236","1.931767"
"3.88","448.9835","1.936833"
"3.89","447.7326","1.941933"
"3.9","446.4801","1.947033"
"3.91","445.2379","1.951867"
"3.92","444.0093","1.956767"
"3.93","442.7727","1.961633"
"3.94","441.4948","1.966467"
"3.95","440.1596","1.971533"
"3.96","438.772","1.976567"
"3.97","437.3455","1.981433"
"3.98","435.9015","1.986467"
"3.99","434.467","1.991467"
"4","433.0492","1.996567"
"4.01","431.6346","2.001767"
"4.02","430.2279","2.006733"
"4.03","428.8514","2.011833"
"4.04","427.5123","2.016933"
"4.05","426.2018","2.0218"
"4.06","424.9032","2.0268"
"4.07","423.6078","2.0318"
"4.08","422.3156","2.036667"
"4.09","421.0194","2.041667"
"4.1","419.7121","2.0465"
"4.11","418.4023","2.051433"
"4.12","417.0855","2.0566"
"4.13","415.7583","2.061567"
"4.14","414.4303","2.066567"
"4.15","413.1277","2.0716"
"4.16","411.8665","2.076533"
"4.17","410.6267","2.0816"
"4.18","409.3806","2.086633"
"4.19","408.1408","2.091567"
"4.2","406.932","2.096667"
"4.21","405.7598","2.101733"
"4.22","404.609","2.1068"
"4.23","403.4599","2.111967"
"4.24","402.3178","2.116867"
"4.25","401.187","2.1218"
"4.26","400.0624","2.126667"
"4.27","398.9291","2.131467"
"4.28","397.7648","2.1365"
"4.29","396.5616","2.141567"
"4.3","395.333","2.146367"
"4.31","394.1139","2.151367"
"4.32","392.9384","2.156367"
"4.33","391.8107","2.1614"
"4.34","390.7116","2.166633"
"4.35","389.6419","2.171633"
"4.36","388.6183","2.1766"
"4.37","387.64","2.1818"
"4.38","386.6871","2.186867"
"4.39","385.7287","2.1919"
"4.4","384.7551","2.196933"
"4.41","383.7721","2.2018"
"4.42","382.7834","2.206733"
"4.43","381.7805","2.2116"
"4.44","380.7616","2.216467"
"4.45","379.7213","2.221567"
"4.46","378.6667","2.2266"
"4.47","377.6145","2.231433"
"4.48","376.5948","2.236533"
"4.49","375.6237","2.241567"
"4.5","374.6891","2.246667"
"4.51","373.768","2.251767"
"4.52","372.8652","2.256767"
"4.53","371.9966","2.261867"
"4.54","371.1621","2.266867"
"4.55","370.3372","2.271767"
"4.56","369.5099","2.276867"
"4.57","368.6794","2.281867"
"4.58","367.8489","2.2867"
"4.59","367.0271","2.2917"
"4.6","366.2284","2.296533"
"4.61","365.4551","2.301433"
"4.62","364.6994","2.306533"
"4.63","363.9555","2.311467"
"4.64","363.2307","2.316433"
"4.65","362.5321","2.3215"
"4.66","361.8661","2.3265"
"4.67","361.228","2.331667"
"4.68","360.6081","2.336733"
"4.69","360.0073","2.3417"
"4.7","359.4398","2.346767"
"4.71","358.905","2.351733"
"4.72","358.39","2.356767"
"4.73","357.8727","2.361867"
"4.74","357.3426","2.3668"
"4.75","356.8141","2.371733"
"4.76","356.3007","2.376633"
"4.77","355.7976","2.381467"
"4.78","355.289","2.3865"
"4.79","354.7629","2.391567"
"4.8","354.2344","2.3964"
"4.81","353.7329","2.4014"
"4.82","353.2799","2.4064"
"4.83","352.8619","2.411467"
"4.84","352.4558","2.4166"
"4.85","352.0497","2.421567"
"4.86","351.6555","2.4266"
"4.87","351.2724","2.4318"
"4.88","350.8774","2.436833"
"4.89","350.4491","2.441967"
"4.9","349.9961","2.446967"
"4.91","349.5439","2.451733"
"4.92","349.0941","2.456733"
"4.93","348.6212","2.461633"
"4.94","348.0975","2.466467"
"4.95","347.5205","2.471533"
"4.96","346.9046","2.476533"
"4.97","346.2601","2.4814"
"4.98","345.6021","2.4865"
"4.99","344.9559","2.491533"
"5","344.3368","2.496633"
"5.01","343.7527","2.501733"
"5.02","343.217","2.506733"
"5.03","342.7354","2.5119"
"5.04","342.2904","2.5169"
"5.05","341.8668","2.521767"
"5.06","341.4543","2.5268"
"5.07","341.0419","2.531833"
"5.08","340.6072","2.536733"
"5.09","340.1391","2.541667"
"5.1","339.6606","2.5465"
"5.11","339.1894","2.5514"
"5.12","338.7157","2.5565"
"5.13","338.2206","2.561433"
"5.14","337.7056","2.5664"
"5.15","337.1779","2.571467"
"5.16","336.6407","2.576467"
"5.17","336.0971","2.581633"
"5.18","335.5654","2.5867"
"5.19","335.0647","2.591667"
"5.2","334.5958","2.596767"
"5.21","334.1325","2.601833"
"5.22","333.6382","2.606867"
"5.23","333.0962","2.611967"
"5.24","332.5311","2.616867"
"5.25","331.9836","2.6218"
"5.26","331.4622","2.626767"
"5.27","330.9425","2.631533"
"5.28","330.3957","2.636433"
"5.29","329.8012","2.6414"
"5.3","329.1639","2.646233"
"5.31","328.4947","2.6513"
"5.32","327.8105","2.6564"
"5.33","327.1055","2.661467"
"5.34","326.3633","2.666667"
"5.35","325.5804","2.671667"
"5.36","324.7531","2.676633"
"5.37","323.8479","2.6818"
"5.38","322.8339","2.686833"
"5.39","321.7196","2.6919"
"5.4","320.5577","2.696933"
"5.41","319.4054","2.7018"
"5.42","318.3087","2.706767"
"5.43","317.2755","2.711633"
"5.44","316.2821","2.716467"
"5.45","315.303","2.7215"
"5.46","314.3446","2.7265"
"5.47","313.4417","2.731367"
"5.48","312.6216","2.736467"
"5.49","311.8873","2.741467"
"5.5","311.2165","2.7466"
"5.51","310.5768","2.751767"
"5.52","309.9664","2.756767"
"5.53","309.4109","2.7618"
"5.54","308.9158","2.7668"
"5.55","308.4651","2.771667"
"5.56","308.0392","2.776733"
"5.57","307.6235","2.781767"
"5.58","307.2127","2.7867"
"5.59","306.8042","2.7917"
"5.6","306.4084","2.796533"
"5.61","306.0262","2.801467"
"5.62","305.628","2.806567"
"5.63","305.1869","2.811467"
"5.64","304.6783","2.816433"
"5.65","304.0934","2.8215"
"5.66","303.4314","2.826533"
"5.67","302.7097","2.8317"
"5.68","301.9913","2.836733"
"5.69","301.3492","2.841667"
"5.7","300.8151","2.8468"
"5.71","300.3557","2.851867"
"5.72","299.9314","2.856867"
"5.73","299.5197","2.861933"
"5.74","299.1263","2.866867"
"5.75","298.752","2.871767"
"5.76","298.3801","2.876733"
"5.77","298.001","2.881533"
"5.78","297.6132","2.886567"
"5.79","297.2182","2.891633"
"5.8","296.824","2.896433"
"5.81","296.4473","2.901333"
"5.82","296.0992","2.906367"
"5.83","295.7606","2.9115"
"5.84","295.4022","2.916667"
"5.85","295.0112","2.9217"
"5.86","294.5987","2.9267"
"5.87","294.1759","2.931833"
"5.88","293.7222","2.936833"
"5.89","293.1746","2.941933"
"5.9","292.4792","2.947"
"5.91","291.6455","2.9518"
"5.92","290.7594","2.956733"
"5.93","289.8932","2.961567"
"5.94","289.0174","2.966467"
"5.95","288.0073","2.971533"
"5.96","286.7579","2.9765"
"5.97","285.2829","2.981333"
"5.98","283.7046","2.9864"
"5.99","282.135","2.991433"
"6","280.6361","2.996533"
"6.01","279.2589","3.001667"
"6.02","278.0429","3.006667"
"6.03","276.9764","3.011833"
"6.04","275.9949","3.016867"
"6.05","275.0031","3.021667"
"6.06","273.9374","3.026733"
"6.07","272.7803","3.031833"
"6.08","271.5516","3.036767"
"6.09","270.292","3.0417"
"6.1","269.0466","3.046533"
"6.11","267.8402","3.051467"
"6.12","266.6378","3.0566"
"6.13","265.3877","3.0615"
"6.14","264.0526","3.066433"
"6.15","262.6101","3.071467"
"6.16","261.0517","3.076433"
"6.17","259.4129","3.0816"
"6.18","257.7591","3.086733"
"6.19","256.1466","3.091733"
"6.2","254.6199","3.096833"
"6.21","253.218","3.101833"
"6.22","251.9337","3.106833"
"6.23","250.7075","3.111967"
"6.24","249.4971","3.116933"
"6.25","248.3177","3.121833"
"6.26","247.1932","3.126833"
"6.27","246.0965","3.131667"
"6.28","244.9489","3.1366"
"6.29","243.6717","3.141533"
"6.3","242.2714","3.1463"
"6.31","240.8512","3.151333"
"6.32","239.5018","3.156433"
"6.33","238.2175","3.161467"
"6.34","236.9142","3.166633"
"6.35","235.5321","3.171633"
"6.36","234.0976","3.176633"
"6.37","232.6957","3.181867"
"6.38","231.3892","3.186867"
"6.39","230.1661","3.1919"
"6.4","228.9748","3.196967"
"6.41","227.7756","3.201767"
"6.42","226.5763","3.2067"
"6.43","225.3954","3.211567"
"6.44","224.2271","3.2164"
"6.45","223.0692","3.2215"
"6.46","221.9256","3.2265"
"6.47","220.8026","3.231367"
"6.48","219.7186","3.236467"
"6.49","218.718","3.241567"
"6.5","217.8288","3.246633"
"6.51","217.0253","3.251833"
"6.52","216.2679","3.2568"
"6.53","215.5518","3.2618"
"6.54","214.8898","3.2668"
"6.55","214.2763","3.271667"
"6.56","213.6731","3.2767"
"6.57","213.0437","3.281733"
"6.58","212.3753","3.2866"
"6.59","211.6768","3.291633"
"6.6","210.9679","3.296533"
"6.61","210.2812","3.301467"
"6.62","209.6264","3.306533"
"6.63","209.0112","3.311433"
"6.64","208.447","3.3164"
"6.65","207.9368","3.321467"
"6.66","207.4576","3.326467"
"6.67","206.9616","3.331667"
"6.68","206.4403","3.336767"
"6.69","205.9452","3.3417"
"6.7","205.524","3.346767"
"6.71","205.1592","3.351833"
"6.72","204.8103","3.3569"
"6.73","204.4479","3.361967"
"6.74","204.0641","3.3669"
"6.75","203.6381","3.371767"
"6.76","203.1438","3.3767"
"6.77","202.5859","3.3815"
"6.78","202.0137","3.3865"
"6.79","201.4796","3.3916"
"6.8","200.9964","3.396433"
"6.81","200.5601","3.401333"
"6.82","200.1778","3.406367"
"6.83","199.8512","3.411467"
"6.84","199.5468","3.416633"
"6.85","199.2313","3.421633"
"6.86","198.8784","3.4267"
"6.87","198.4374","3.431867"
"6.88","197.8437","3.4369"
"6.89","197.0299","3.442"
"6.9","195.8799","3.447"
"6.91","194.3191","3.4518"
"6.92","192.5111","3.456733"
"6.93","190.7698","3.461633"
"6.94","189.2805","3.466533"
"6.95","188.0503","3.4716"
"6.96","187.0298","3.476567"
"6.97","186.1731","3.4814"
"6.98","185.4316","3.486467"
"6.99","184.7641","3.4915"
"7","184.1275","3.496633"
"7.01","183.4854","3.501767"
"7.02","182.8289","3.506733"
"7.03","182.1947","3.511867"
"7.04","181.6273","3.516867"
"7.05","181.1282","3.5217"
"7.06","180.676","3.526767"
"7.07","180.2524","3.531767"
"7.08","179.8415","3.5366"
"7.09","179.4267","3.541633"
"7.1","179.0055","3.5465"
"7.11","178.5731","3.5514"
"7.12","178.1249","3.556533"
"7.13","177.6687","3.561467"
"7.14","177.2094","3.5664"
"7.15","176.7429","3.571467"
"7.16","176.2811","3.576433"
"7.17","175.8575","3.5816"
"7.18","175.5087","3.5867"
"7.19","175.2408","3.591667"
"7.2","175.031","3.596767"
"7.21","174.8371","3.601767"
"7.22","174.6249","3.6068"
"7.23","174.3714","3.611933"
"7.24","174.0964","3.616833"
"7.25","173.8421","3.621767"
"7.26","173.6371","3.6267"
"7.27","173.4662","3.631533"
"7.28","173.3049","3.636567"
"7.29","173.1364","3.6415"
"7.3","172.9671","3.646267"
"7.31","172.8018","3.6513"
"7.32","172.6452","3.6565"
"7.33","172.4919","3.661533"
"7.34","172.3409","3.666633"
"7.35","172.2081","3.671633"
"7.36","172.0993","3.676667"
"7.37","171.988","3.681867"
"7.38","171.8434","3.686867"
"7.39","171.6781","3.691967"
"7.4","171.5175","3.697"
"7.41","171.3657","3.701767"
"7.42","171.206","3.7067"
"7.43","171.0137","3.7116"
"7.44","170.7681","3.7165"
"7.45","170.4613","3.721567"
"7.46","170.1268","3.7265"
"7.47","169.8049","3.731333"
"7.48","169.5228","3.736433"
"7.49","169.2732","3.7415"
"7.5","169.0388","3.7466"
"7.51","168.8115","3.751767"
"7.52","168.6064","3.756733"
"7.53","168.4276","3.7618"
"7.54","168.2599","3.766933"
"7.55","168.0891","3.771833"
"7.56","167.9079","3.7769"
"7.57","167.7076","3.7819"
"7.58","167.4596","3.786733"
"7.59","167.106","3.791633"
"7.6","166.5997","3.7965"
"7.61","165.9727","3.8014"
"7.62","165.3306","3.806467"
"7.63","164.7599","3.811367"
"7.64","164.2609","3.816367"
"7.65","163.7729","3.821467"
"7.66","163.2381","3.826433"
"7.67","162.6428","3.831567"
"7.68","162.0205","3.836667"
"7.69","161.403","3.8416"
"7.7","160.8094","3.846733"
"7.71","160.2634","3.851767"
"7.72","159.7865","3.8568"
"7.73","159.3669","3.8619"
"7.74","158.9751","3.866833"
"7.75","158.5945","3.871833"
"7.76","158.2169","3.876733"
"7.77","157.8291","3.881567"
"7.78","157.4174","3.886567"
"7.79","156.9692","3.891667"
"7.8","156.4757","3.8965"
"7.81","155.9281","3.9014"
"7.82","155.321","3.906367"
"7.83","154.6383","3.9114"
"7.84","153.8626","3.916567"
"7.85","153.0019","3.9216"
"7.86","152.1222","3.9266"
"7.87","151.3235","3.9318"
"7.88","150.6464","3.936833"
"7.89","150.0281","3.941933"
"7.9","149.2747","3.946967"
"7.91","148.0285","3.9518"
"7.92","146.0044","3.956767"
"7.93","143.4032","3.961667"
"7.94","140.8259","3.966533"
"7.95","138.6722","3.971567"
"7.96","136.927","3.976533"
"7.97","135.4265","3.981467"
"7.98","134.062","3.986567"
"7.99","132.8023","3.991533"
"8","131.6674","3.9966"
"8.01","130.6693","4.001733"
"8.02","129.8038","4.006733"
"8.03","129.048","4.011833"
"8.04","128.3765","4.016867"
"8.05","127.7661","4.021733"
"8.06","127.1598","4.026767"
"8.07","126.4421","4.0318"
"8.08","125.5584","4.036733"
"8.09","124.6476","4.0417"
"8.1","123.9268","4.046534"
"8.11","123.4317","4.051434"
"8.12","123.0582","4.056567"
"8.13","122.7299","4.0615"
"8.14","122.4351","4.066433"
"8.15","122.18","4.0715"
"8.16","121.9702","4.0765"
"8.17","121.7961","4.081634"
"8.18","121.6404","4.086733"
"8.19","121.4965","4.0917"
"8.2","121.3638","4.096767"
"8.21","121.2382","4.101833"
"8.22","121.1135","4.106867"
"8.23","120.9911","4.112"
"8.24","120.875","4.116967"
"8.25","120.7741","4.121867"
"8.26","120.6907","4.126767"
"8.27","120.6255","4.131567"
"8.28","120.5659","4.136567"
"8.29","120.496","4.141567"
"8.3","120.4133","4.1463"
"8.31","120.3426","4.1513"
"8.32","120.2981","4.156434"
"8.33","120.2726","4.161467"
"8.34","120.2488","4.166634"
"8.35","120.2329","4.1716"
"8.36","120.2329","4.1766"
"8.37","120.248","4.1818"
"8.38","120.2647","4.1868"
"8.39","120.2774","4.191867"
"8.4","120.2909","4.196933"
"8.41","120.3092","4.201833"
"8.42","120.3291","4.206767"
"8.43","120.3473","4.2116"
"8.44","120.3624","4.216434"
"8.45","120.3688","4.2215"
"8.46","120.3601","4.2265"
"8.47","120.3402","4.231333"
"8.48","120.3179","4.236434"
"8.49","120.306","4.241467"
"8.5","120.3068","4.2466"
"8.51","120.3116","4.251733"
"8.52","120.3195","4.256667"
"8.53","120.3402","4.261767"
"8.54","120.376","4.266867"
"8.55","120.4093","4.2718"
"8.56","120.4316","4.276767"
"8.57","120.4499","4.281767"
"8.58","120.4697","4.286633"
"8.59","120.4856","4.291634"
"8.6","120.4944","4.296566"
"8.61","120.4999","4.301467"
"8.62","120.496","4.306533"
"8.63","120.4824","4.3115"
"8.64","120.4626","4.316467"
"8.65","120.4419","4.321533"
"8.66","120.4252","4.326533"
"8.67","120.4141","4.3317"
"8.68","120.4109","4.336767"
"8.69","120.4133","4.341667"
"8.7","120.4252","4.346767"
"8.71","120.4419","4.351833"
"8.72","120.4491","4.356867"
"8.73","120.4467","4.361933"
"8.74","120.4387","4.3669"
"8.75","120.4363","4.371867"
"8.76","120.4363","4.3767"
"8.77","120.4292","4.3815"
"8.78","120.4069","4.386533"
"8.79","120.3688","4.3916"
"8.8","120.3219","4.396467"
"8.81","120.2774","4.401433"
"8.82","120.2464","4.4064"
"8.83","120.2305","4.411433"
"8.84","120.2257","4.416634"
"8.85","120.2265","4.421667"
"8.86","120.2337","4.426633"
"8.87","120.2512","4.431767"
"8.88","120.275","4.4368"
"8.89","120.2917","4.441867"
"8.9","120.2933","4.4469"
"8.91","120.2909","4.4517"
"8.92","120.2909","4.456667"
"8.93","120.2909","4.461567"
"8.94","120.2861","4.4664"
"8.95","120.2702","4.471467"
"8.96","120.2401","4.476433"
"8.97","120.2035","4.4813"
"8.98","120.1638","4.486434"
"8.99","120.1264","4.491434"
"9","120.0899","4.496567"
"9.01","120.0509","4.501767"
"9.02","120.0104","4.506733"
"9.03","119.9706","4.5119"
"9.04","119.9269","4.516933"
"9.05","119.8649","4.521767"
"9.06","119.7799","4.526834"
"9.07","119.675","4.531833"
"9.08","119.5534","4.5367"
"9.09","119.4127","4.5417"
"9.1","119.2546","4.5466"
"9.11","119.0742","4.551533"
"9.12","118.8644","4.5566"
"9.13","118.6252","4.5615"
"9.14","118.3518","4.566467"
"9.15","118.0275","4.571533"
"9.16","117.6174","4.5765"
"9.17","117.0961","4.5816"
"9.18","116.485","4.5867"
"9.19","115.8261","4.591633"
"9.2","115.1609","4.596767"
"9.21","114.5029","4.601833"
"9.22","113.8544","4.606833"
"9.23","113.221","4.611933"
"9.24","112.613","4.616933"
"9.25","112.0575","4.621833"
"9.26","111.568","4.626733"
"9.27","111.1372","4.631567"
"9.28","110.7271","4.6366"
"9.29","110.2988","4.6416"
"9.3","109.8291","4.646367"
"9.31","109.3022","4.651367"
"9.32","108.6473","4.656466"
"9.33","107.7247","4.6615"
"9.34","106.4126","4.666667"
"9.35","104.8144","4.6716"
"9.36","103.2726","4.676567"
"9.37","102.0702","4.681767"
"9.38","101.2079","4.686833"
"9.39","100.5316","4.691833"
"9.4","99.9252","4.6969"
"9.41","99.36095","4.701734"
"9.42","98.83722","4.7067"
"9.43","98.34528","4.7116"
"9.44","97.87241","4.716467"
"9.45","97.40194","4.721533"
"9.46","96.9243","4.726567"
"9.47","96.4435","4.731367"
"9.48","95.97063","4.736467"
"9.49","95.48664","4.741533"
"9.5","94.91444","4.746667"
"9.51","94.17613","4.751733"
"9.52","93.24471","4.7567"
"9.53","92.02957","4.761767"
"9.54","90.2764","4.766867"
"9.55","87.89539","4.7718"
"9.56","85.27358","4.776834"
"9.57","82.92516","4.7818"
"9.58","80.99318","4.786667"
"9.59","79.33935","4.791667"
"9.6","77.87784","4.796566"
"9.61","76.60389","4.801467"
"9.62","75.47379","4.806533"
"9.63","74.39693","4.811433"
"9.64","73.23981","4.8164"
"9.65","71.79976","4.8215"
"9.66","69.71995","4.8265"
"9.67","66.31374","4.831667"
"9.68","60.08069","4.836767"
"9.69","49.50126","4.8417"
"9.7","36.25075","4.846734"
"9.71","25.42257","4.851833"
"9.72","20.10584","4.856833"
"9.73","18.65864","4.861933"
"9.74","18.39717","4.866867"
"9.75","18.40353","4.8718"
"9.76","18.50685","4.876767"
"9.77","18.49572","4.8816"
"9.78","18.39956","4.886567"
"9.79","18.40194","4.891634"
"9.8","18.48857","4.896467"
"9.81","18.48857","4.901333"
"9.82","18.41148","4.9063"
"9.83","18.40671","4.911367"
"9.84","18.47824","4.916567"
"9.85","18.49572","4.921633"
"9.86","18.44724","4.926667"
"9.87","18.43929","4.9318"
"9.88","18.48062","4.9369"
"9.89","18.48062","4.941967"
"9.9","18.43611","4.947"
"9.91","18.43611","4.951833"
"9.92","18.47744","4.956767"
"9.93","18.47744","4.961667"
"9.94","18.44168","4.9665"
"9.95","18.44724","4.971567"
"9.96","18.48618","4.976533"
"9.97","18.47982","4.981367"
"9.98","18.44486","4.9864"
"9.99","18.4536","4.991467"
"10","18.49492","4.996567"
"10.01","18.49174","5.001633"
"10.02","18.45121","5.006633"
"10.03","18.44486","5.011767"
"10.04","18.47506","5.0169"
"10.05","18.47347","5.0218"
"10.06","18.43373","5.0268"
"10.07","18.42181","5.031767"
"10.08","18.44486","5.0366"
"10.09","18.44406","5.041634"
"10.1","18.40353","5.046534"
"10.11","18.38207","5.051434"
"10.12","18.40194","5.056567"
"10.13","18.4083","5.0615"
"10.14","18.38366","5.066433"
"10.15","18.37572","5.071533"
"10.16","18.40035","5.0765"
"10.17","18.40909","5.0816"
"10.18","18.38843","5.086667"
"10.19","18.3781","5.091633"
"10.2","18.3924","5.0967"
"10.21","18.3932","5.101767"
"10.22","18.37095","5.1068"
"10.23","18.36459","5.111933"
"10.24","18.38446","5.1169"
"10.25","18.3932","5.121833"
"10.26","18.38128","5.126733"
"10.27","18.37572","5.131567"
"10.28","18.38605","5.1366"
"10.29","18.38923","5.141634"
"10.3","18.38446","5.146367"
"10.31","18.3932","5.1514"
"10.32","18.4083","5.1565"
"10.33","18.4083","5.161533"
"10.34","18.39797","5.1667"
"10.35","18.40194","5.171667"
"10.36","18.41784","5.176633"
"10.37","18.4226","5.181833"
"10.38","18.41545","5.1869"
"10.39","18.41307","5.191933"
"10.4","18.42022","5.196933"
"10.41","18.42578","5.2018"
"10.42","18.42658","5.206767"
"10.43","18.43134","5.211633"
"10.44","18.43929","5.2164"
"10.45","18.43929","5.221467"
"10.46","18.43373","5.2265"
"10.47","18.4377","5.231367"
"10.48","18.45121","5.236434"
"10.49","18.45598","5.241533"
"10.5","18.4536","5.246667"
"10.51","18.45837","5.251733"
"10.52","18.47108","5.256667"
"10.53","18.47108","5.261767"
"10.54","18.45757","5.2669"
"10.55","18.44883","5.2718"
"10.56","18.4536","5.276834"
"10.57","18.45757","5.2818"
"10.58","18.45121","5.286667"
"10.59","18.44009","5.2916"
"10.6","18.43532","5.296534"
"10.61","18.43611","5.301434"
"10.62","18.43294","5.3065"
"10.63","18.42181","5.311433"
"10.64","18.41068","5.3164"
"10.65","18.4083","5.321467"
"10.66","18.40909","5.3265"
"10.67","18.4083","5.331634"
"10.68","18.40591","5.3367"
"10.69","18.40194","5.341633"
"10.7","18.39479","5.346734"
"10.71","18.38446","5.3518"
"10.72","18.3781","5.356833"
"10.73","18.37969","5.361933"
"10.74","18.38128","5.366867"
"10.75","18.37572","5.371767"
"10.76","18.36856","5.376733"
"10.77","18.36459","5.381534"
"10.78","18.36618","5.386533"
"10.79","18.36697","5.391634"
"10.8","18.36618","5.3965"
"10.81","18.36459","5.401433"
"10.82","18.36697","5.406367"
"10.83","18.37015","5.411433"
"10.84","18.37333","5.416667"
"10.85","18.38446","5.421667"
"10.86","18.40194","5.426667"
"10.87","18.41068","5.4318"
"10.88","18.40353","5.436833"
"10.89","18.39717","5.4404"
"10.9","18.39956","5.441433"