File: degradation_testing/tensile_testing/Resin/Resin_Acetone/Resin_A_3.csv
"1 _ 1",,
"Time","Force","Stroke"
"sec","N","mm"
"0","0.4959106","0.0001"
"0.01","0.500679","0.001966667"
"0.02","0.518163","0.006133333"
"0.03","0.5865097","0.0108"
"0.04","0.8773804","0.0158"
"0.05","1.761913","0.0208"
"0.06","3.681183","0.02596667"
"0.07","6.831487","0.0311"
"0.08","10.9609","0.03606667"
"0.09","15.58622","0.0412"
"0.1","20.33313","0.04633334"
"0.11","25.03157","0.05143333"
"0.12","29.61954","0.05663333"
"0.13","34.09227","0.06163333"
"0.14","38.46884","0.0667"
"0.15","42.7707","0.07176667"
"0.16","46.94303","0.07663333"
"0.17","50.69892","0.0817"
"0.18","53.52179","0.0868"
"0.19","55.09694","0.0917"
"0.2","55.66994","0.09666667"
"0.21","55.782","0.1015"
"0.22","55.78915","0.1063667"
"0.23","55.79074","0.1115333"
"0.24","55.7812","0.1165333"
"0.25","55.75578","0.1214333"
"0.26","55.73511","0.1265"
"0.27","55.74147","0.1315"
"0.28","55.77008","0.1366333"
"0.29","55.79789","0.1417333"
"0.3","55.81061","0.1466333"
"0.31","55.81141","0.1517"
"0.32","55.81061","0.1568"
"0.33","55.813","0.1618333"
"0.34","55.81538","0.1669333"
"0.35","55.81697","0.1718667"
"0.36","55.82015","0.1767667"
"0.37","55.83525","0.1817667"
"0.38","55.85273","0.1866"
"0.39","55.86465","0.1915333"
"0.4","55.87339","0.1966"
"0.41","55.88372","0.2013333"
"0.42","55.88611","0.2062667"
"0.43","55.87975","0.2113667"
"0.44","55.87975","0.2164"
"0.45","55.89326","0.2215667"
"0.46","55.90836","0.2266"
"0.47","55.91313","0.2315667"
"0.48","55.91552","0.2367333"
"0.49","55.91949","0.2418333"
"0.5","55.91631","0.2468667"
"0.51","55.90916","0.2519333"
"0.52","55.902","0.2568667"
"0.53","55.902","0.2618"
"0.54","55.9028","0.2667"
"0.55","55.89485","0.2715"
"0.56","55.87578","0.2765"
"0.57","55.86227","0.2815333"
"0.58","55.8583","0.2864"
"0.59","55.85591","0.2914333"
"0.6","55.84717","0.2965"
"0.61","55.83922","0.3016"
"0.62","55.8424","0.3067333"
"0.63","55.86147","0.3117333"
"0.64","55.88611","0.3167333"
"0.65","55.91075","0.3218333"
"0.66","55.93141","0.3268"
"0.67","55.9473","0.3317667"
"0.68","55.95763","0.3367667"
"0.69","55.96002","0.3416667"
"0.7","55.96082","0.3466333"
"0.71","55.96876","0.3515667"
"0.72","55.97989","0.3564333"
"0.73","55.99101","0.3614667"
"0.74","55.99976","0.3664667"
"0.75","56.00532","0.3713667"
"0.76","56.0077","0.3764333"
"0.77","56.01327","0.3815"
"0.78","56.02757","0.3866333"
"0.79","56.04665","0.3917333"
"0.8","56.05618","0.3966667"
"0.81","56.05539","0.4017333"
"0.82","56.05539","0.4068"
"0.83","56.05618","0.4118333"
"0.84","56.05857","0.4169333"
"0.85","56.06254","0.4218667"
"0.86","56.07128","0.4267"
"0.87","56.08559","0.4316667"
"0.88","56.10466","0.4365"
"0.89","56.12771","0.4415"
"0.9","56.15234","0.4466"
"0.91","56.19685","0.4514333"
"0.92","56.39235","0.4563333"
"0.93","57.07423","0.4613333"
"0.94","58.66448","0.4663667"
"0.95","61.26801","0.4715667"
"0.96","64.46997","0.4766333"
"0.97","67.65763","0.4816"
"0.98","70.42408","0.4867667"
"0.99","72.7121","0.4918333"
"1","74.8388","0.4968667"
"1.01","77.41133","0.5019"
"1.02","80.91768","0.5067667"
"1.03","85.26484","0.5116667"
"1.04","89.89413","0.5165667"
"1.05","94.3327","0.5214334"
"1.06","98.55191","0.5264667"
"1.07","102.783","0.5315"
"1.08","107.1326","0.5363333"
"1.09","111.4694","0.5413"
"1.1","115.6624","0.5463333"
"1.11","119.7735","0.5514"
"1.12","123.9649","0.5566"
"1.13","128.3208","0.5616333"
"1.14","132.8071","0.5667"
"1.15","137.3498","0.5718333"
"1.16","141.8583","0.5767334"
"1.17","146.2722","0.5817333"
"1.18","150.6209","0.5867667"
"1.19","154.9888","0.5916333"
"1.2","159.4257","0.5966333"
"1.21","163.9016","0.6014333"
"1.22","168.3299","0.6063333"
"1.23","172.65","0.6114666"
"1.24","176.8708","0.6164667"
"1.25","181.0726","0.6213667"
"1.26","185.3355","0.6264667"
"1.27","189.6707","0.6314"
"1.28","194.0012","0.6365"
"1.29","198.2633","0.6416"
"1.3","202.477","0.6465667"
"1.31","206.7153","0.6516667"
"1.32","211.0171","0.6567333"
"1.33","215.3397","0.6617333"
"1.34","219.6002","0.6669"
"1.35","223.7693","0.6719"
"1.36","227.8853","0.6768"
"1.37","231.9916","0.6818"
"1.38","236.0908","0.6866"
"1.39","240.1352","0.6915333"
"1.4","244.0762","0.6966"
"1.41","247.9156","0.7013667"
"1.42","251.7144","0.7062667"
"1.43","255.5331","0.7113667"
"1.44","259.3644","0.7164"
"1.45","263.1561","0.7215334"
"1.46","266.9096","0.7266"
"1.47","270.6846","0.7316"
"1.48","274.5128","0.7368"
"1.49","278.3624","0.7418333"
"1.5","282.1819","0.7468667"
"1.51","285.9449","0.7519"
"1.52","289.6563","0.7567334"
"1.53","293.3367","0.7617"
"1.54","296.9805","0.7666333"
"1.55","300.5576","0.7714667"
"1.56","304.0322","0.7765"
"1.57","307.4113","0.7815334"
"1.58","310.7325","0.7863667"
"1.59","314.0275","0.7914333"
"1.6","317.3073","0.7965"
"1.61","320.5602","0.8015667"
"1.62","323.7708","0.8067334"
"1.63","326.9545","0.8117667"
"1.64","330.1438","0.8168"
"1.65","333.3434","0.8219"
"1.66","336.5159","0.8267667"
"1.67","339.6161","0.8317333"
"1.68","342.6226","0.8367"
"1.69","345.5472","0.8416"
"1.7","348.3868","0.8466333"
"1.71","351.1317","0.8515667"
"1.72","353.7782","0.8564333"
"1.73","356.3285","0.8615333"
"1.74","358.7675","0.8664667"
"1.75","361.0849","0.8714"
"1.76","363.2927","0.8765333"
"1.77","365.4083","0.8815"
"1.78","367.4253","0.8866"
"1.79","369.3604","0.8917"
"1.8","371.2892","0.8966333"
"1.81","373.2689","0.9017"
"1.82","375.2645","0.9067667"
"1.83","377.2012","0.9118"
"1.84","379.0593","0.9169334"
"1.85","380.8649","0.9218667"
"1.86","382.634","0.9267667"
"1.87","384.3586","0.9317334"
"1.88","386.0362","0.9365667"
"1.89","387.6527","0.9415"
"1.9","389.1977","0.9466"
"1.91","390.6854","0.9514667"
"1.92","392.1501","0.9563"
"1.93","393.6164","0.9613667"
"1.94","395.0874","0.9663666"
"1.95","396.537","0.9715"
"1.96","397.9532","0.9765667"
"1.97","399.3503","0.9815333"
"1.98","400.7459","0.9867"
"1.99","402.135","0.9918"
"2","403.4972","0.9969"
"2.01","404.8149","1.002"
"2.02","406.0809","1.0068"
"2.03","407.2873","1.011633"
"2.04","408.4198","1.0165"
"2.05","409.4601","1.021367"
"2.06","410.3875","1.026467"
"2.07","411.2132","1.031567"
"2.08","411.9937","1.0364"
"2.09","412.778","1.041433"
"2.1","413.5712","1.0465"
"2.11","414.327","1.051533"
"2.12","415.0025","1.0567"
"2.13","415.6033","1.061733"
"2.14","416.1517","1.066767"
"2.15","416.6524","1.0719"
"2.16","417.1053","1.076767"
"2.17","417.5067","1.0817"
"2.18","417.8341","1.0867"
"2.19","418.0614","1.091633"
"2.2","418.1909","1.096667"
"2.21","418.2672","1.101533"
"2.22","418.3451","1.1064"
"2.23","418.4492","1.111533"
"2.24","418.57","1.1165"
"2.25","418.7099","1.121433"
"2.26","418.9046","1.126533"
"2.27","419.1971","1.131467"
"2.28","419.5754","1.136567"
"2.29","419.9902","1.141633"
"2.3","420.4249","1.1466"
"2.31","420.9137","1.1517"
"2.32","421.5328","1.156767"
"2.33","422.3156","1.161767"
"2.34","423.2295","1.166867"
"2.35","424.2086","1.171833"
"2.36","425.2156","1.176667"
"2.37","426.232","1.181633"
"2.38","427.2405","1.186433"
"2.39","428.2403","1.1914"
"2.4","429.2425","1.196467"
"2.41","430.2716","1.201333"
"2.42","431.3532","1.206267"
"2.43","432.5143","1.211333"
"2.44","433.7653","1.216333"
"2.45","435.0845","1.2215"
"2.46","436.4649","1.2266"
"2.47","437.9193","1.2315"
"2.48","439.4452","1.2367"
"2.49","441.0036","1.2418"
"2.5","442.5669","1.246833"
"2.51","444.1277","1.251867"
"2.52","445.7021","1.256733"
"2.53","447.2884","1.2617"
"2.54","448.8611","1.266633"
"2.55","450.3989","1.271467"
"2.56","451.9041","1.2765"
"2.57","453.3799","1.281567"
"2.58","454.824","1.286367"
"2.59","456.2394","1.291467"
"2.6","457.6524","1.2965"
"2.61","459.0686","1.301567"
"2.62","460.4753","1.306733"
"2.63","461.8716","1.311733"
"2.64","463.2696","1.316767"
"2.65","464.6714","1.321833"
"2.66","466.0781","1.326733"
"2.67","467.4983","1.3318"
"2.68","468.9344","1.336833"
"2.69","470.3744","1.341733"
"2.7","471.801","1.346733"
"2.71","473.2068","1.3516"
"2.72","474.5809","1.356433"
"2.73","475.9089","1.361533"
"2.74","477.1932","1.3665"
"2.75","478.46","1.371433"
"2.76","479.7395","1.376467"
"2.77","481.0484","1.381467"
"2.78","482.3796","1.3866"
"2.79","483.7251","1.391667"
"2.8","485.0992","1.396567"
"2.81","486.5193","1.401633"
"2.82","487.9745","1.4067"
"2.83","489.428","1.411767"
"2.84","490.857","1.4169"
"2.85","492.2636","1.421833"
"2.86","493.6592","1.4267"
"2.87","495.0468","1.431667"
"2.88","496.4153","1.4365"
"2.89","497.7465","1.441533"
"2.9","499.0363","1.446633"
"2.91","500.3119","1.451467"
"2.92","501.612","1.456333"
"2.93","502.9535","1.461333"
"2.94","504.3181","1.4664"
"2.95","505.6675","1.471533"
"2.96","506.9963","1.476633"
"2.97","508.3378","1.481633"
"2.98","509.7198","1.4868"
"2.99","511.1201","1.491833"
"3","512.5006","1.4969"
"3.01","513.8508","1.502"
"3.02","515.1836","1.5068"
"3.03","516.4957","1.5117"
"3.04","517.7633","1.516567"
"3.05","518.9601","1.521467"
"3.06","520.0751","1.526467"
"3.07","521.1147","1.5315"
"3.08","522.1041","1.536367"
"3.09","523.0697","1.541433"
"3.1","524.0218","1.5465"
"3.11","524.9532","1.5516"
"3.12","525.8513","1.556733"
"3.13","526.7263","1.561733"
"3.14","527.5981","1.566867"
"3.15","528.4707","1.5719"
"3.16","529.321","1.576733"
"3.17","530.134","1.5817"
"3.18","530.9105","1.586767"
"3.19","531.6432","1.591667"
"3.2","532.3187","1.596633"
"3.21","532.9585","1.601533"
"3.22","533.5903","1.606367"
"3.23","534.2126","1.6115"
"3.24","534.811","1.616433"
"3.25","535.3936","1.621333"
"3.26","535.9928","1.626433"
"3.27","536.627","1.631433"
"3.28","537.2906","1.636467"
"3.29","537.982","1.6416"
"3.3","538.7203","1.646533"
"3.31","539.5293","1.651633"
"3.32","540.4091","1.656733"
"3.33","541.3445","1.661767"
"3.34","542.3132","1.6669"
"3.35","543.3035","1.6719"
"3.36","544.3287","1.676733"
"3.37","545.3952","1.6817"
"3.38","546.4959","1.6866"
"3.39","547.5974","1.6915"
"3.4","548.6806","1.696467"
"3.41","549.7662","1.7013"
"3.42","550.8836","1.7063"
"3.43","552.0383","1.7114"
"3.44","553.2201","1.7164"
"3.45","554.4233","1.721533"
"3.46","555.6631","1.7265"
"3.47","556.949","1.731467"
"3.48","558.2698","1.736667"
"3.49","559.5962","1.741733"
"3.5","560.9139","1.746767"
"3.51","562.2347","1.751867"
"3.52","563.5858","1.7568"
"3.53","564.9678","1.761733"
"3.54","566.3602","1.7666"
"3.55","567.7366","1.7714"
"3.56","569.0765","1.776467"
"3.57","570.3727","1.781533"
"3.58","571.6411","1.786333"
"3.59","572.9222","1.791333"
"3.6","574.2471","1.7964"
"3.61","575.5997","1.801533"
"3.62","576.9467","1.806733"
"3.63","578.3002","1.811733"
"3.64","579.6996","1.816767"
"3.65","581.1541","1.821733"
"3.66","582.6402","1.8266"
"3.67","584.1191","1.8317"
"3.68","585.5671","1.836767"
"3.69","586.9841","1.841667"
"3.7","588.39","1.846633"
"3.71","589.8126","1.8515"
"3.72","591.2487","1.8564"
"3.73","592.6688","1.8615"
"3.74","594.0596","1.8665"
"3.75","595.4401","1.871433"
"3.76","596.8436","1.8765"
"3.77","598.282","1.8815"
"3.78","599.7372","1.8866"
"3.79","601.1828","1.891667"
"3.8","602.6252","1.896567"
"3.81","604.0867","1.901667"
"3.82","605.5705","1.906767"
"3.83","607.0543","1.9118"
"3.84","608.5165","1.916967"
"3.85","609.9622","1.921933"
"3.86","611.4046","1.9268"
"3.87","612.8391","1.931733"
"3.88","614.2449","1.936533"
"3.89","615.6","1.9415"
"3.9","616.8866","1.9466"
"3.91","618.1304","1.951433"
"3.92","619.3757","1.9563"
"3.93","620.6465","1.9613"
"3.94","621.9419","1.966367"
"3.95","623.2325","1.971633"
"3.96","624.5112","1.9767"
"3.97","625.8146","1.981667"
"3.98","627.168","1.986833"
"3.99","628.5548","1.991833"
"4","629.9281","1.996867"
"4.01","631.2768","2.002"
"4.02","632.623","2.006867"
"4.03","633.9764","2.0117"
"4.04","635.3204","2.016567"
"4.05","636.6293","2.0214"
"4.06","637.8849","2.026467"
"4.07","639.0865","2.0315"
"4.08","640.2628","2.0363"
"4.09","641.4477","2.0414"
"4.1","642.6668","2.0464"
"4.11","643.9034","2.051533"
"4.12","645.1368","2.056733"
"4.13","646.3782","2.061733"
"4.14","647.6514","2.066867"
"4.15","648.9626","2.071833"
"4.16","650.293","2.0766"
"4.17","651.6147","2.0816"
"4.18","652.9085","2.086767"
"4.19","654.165","2.091667"
"4.2","655.3968","2.096667"
"4.21","656.6421","2.101567"
"4.22","657.9177","2.106433"
"4.23","659.1908","2.111533"
"4.24","660.4354","2.1165"
"4.25","661.668","2.1214"
"4.26","662.9157","2.126533"
"4.27","664.1904","2.131467"
"4.28","665.4835","2.136567"
"4.29","666.7868","2.141667"
"4.3","668.0997","2.146667"
"4.31","669.4126","2.151733"
"4.32","670.7159","2.1568"
"4.33","672.005","2.161767"
"4.34","673.2758","2.166867"
"4.35","674.5227","2.1719"
"4.36","675.7442","2.176867"
"4.37","676.9435","2.181833"
"4.38","678.1157","2.1866"
"4.39","679.2545","2.1915"
"4.4","680.3481","2.196467"
"4.41","681.4067","2.201267"
"4.42","682.4501","2.206267"
"4.43","683.5048","2.211367"
"4.44","684.5808","2.216367"
"4.45","685.676","2.221533"
"4.46","686.7886","2.226633"
"4.47","687.9202","2.231567"
"4.48","689.0646","2.236733"
"4.49","690.2186","2.2418"
"4.5","691.3781","2.246833"
"4.51","692.5336","2.2519"
"4.52","693.6836","2.256733"
"4.53","694.8209","2.261633"
"4.54","695.9335","2.266567"
"4.55","697.0104","2.2714"
"4.56","698.0268","2.276467"
"4.57","698.9654","2.281533"
"4.58","699.8586","2.286333"
"4.59","700.7686","2.2914"
"4.6","701.7366","2.296467"
"4.61","702.7475","2.301567"
"4.62","703.7719","2.306767"
"4.63","704.8185","2.3118"
"4.64","705.9121","2.3168"
"4.65","707.051","2.321767"
"4.66","708.1922","2.326633"
"4.67","709.2985","2.331667"
"4.68","710.3571","2.336733"
"4.69","711.3759","2.341633"
"4.7","712.3765","2.346633"
"4.71","713.3826","2.3515"
"4.72","714.3926","2.356333"
"4.73","715.3797","2.361433"
"4.74","716.3318","2.3664"
"4.75","717.268","2.371333"
"4.76","718.2137","2.376433"
"4.77","719.1857","2.3814"
"4.78","720.1775","2.386533"
"4.79","721.1788","2.391633"
"4.8","722.2088","2.3966"
"4.81","723.2849","2.401733"
"4.82","724.4039","2.4068"
"4.83","725.5435","2.4118"
"4.84","726.6799","2.416933"
"4.85","727.8045","2.4219"
"4.86","728.9227","2.426767"
"4.87","730.0273","2.4317"
"4.88","731.113","2.4365"
"4.89","732.1691","2.4415"
"4.9","733.1896","2.446633"
"4.91","734.1893","2.451467"
"4.92","735.1987","2.456333"
"4.93","736.2405","2.461333"
"4.94","737.3102","2.4663"
"4.95","738.3712","2.4715"
"4.96","739.4123","2.476567"
"4.97","740.463","2.481633"
"4.98","741.5565","2.486767"
"4.99","742.689","2.4918"
"5","743.8334","2.496933"
"5.01","744.9643","2.502033"
"5.02","746.0714","2.506833"
"5.03","747.1577","2.5117"
"5.04","748.229","2.5166"
"5.05","749.2733","2.521467"
"5.06","750.2739","2.526567"
"5.07","751.2275","2.531567"
"5.08","752.1534","2.5364"
"5.09","753.0848","2.5415"
"5.1","754.0377","2.5465"
"5.11","755.0009","2.551533"
"5.12","755.9482","2.556733"
"5.13","756.8788","2.561767"
"5.14","757.8135","2.566867"
"5.15","758.7703","2.571867"
"5.16","759.7422","2.576667"
"5.17","760.7095","2.581667"
"5.18","761.648","2.586733"
"5.19","762.5405","2.591633"
"5.2","763.3917","2.596633"
"5.21","764.238","2.601533"
"5.22","765.0995","2.606433"
"5.23","765.9618","2.611567"
"5.24","766.8042","2.616533"
"5.25","767.6299","2.6214"
"5.26","768.4636","2.626467"
"5.27","769.3124","2.631433"
"5.28","770.158","2.636533"
"5.29","770.9893","2.641633"
"5.3","771.8229","2.646567"
"5.31","772.6812","2.651667"
"5.32","773.5578","2.656767"
"5.33","774.4265","2.661733"
"5.34","775.2649","2.666833"
"5.35","776.0827","2.671867"
"5.36","776.8933","2.6768"
"5.37","777.7087","2.6818"
"5.38","778.5249","2.6866"
"5.39","779.3292","2.691533"
"5.4","780.1096","2.696567"
"5.41","780.8654","2.7013"
"5.42","781.5989","2.7062"
"5.43","782.3229","2.7113"
"5.44","783.0429","2.716333"
"5.45","783.7574","2.721567"
"5.46","784.4861","2.726633"
"5.47","785.2602","2.731567"
"5.48","786.0844","2.736767"
"5.49","786.9244","2.741867"
"5.5","787.7445","2.7469"
"5.51","788.5329","2.751967"
"5.52","789.3109","2.756833"
"5.53","790.0842","2.761733"
"5.54","790.8392","2.766667"
"5.55","791.5513","2.771467"
"5.56","792.2101","2.7765"
"5.57","792.8109","2.7815"
"5.58","793.3744","2.786333"
"5.59","793.9235","2.791367"
"5.6","794.4783","2.796467"
"5.61","795.0417","2.801533"
"5.62","795.6132","2.806767"
"5.63","796.2028","2.811767"
"5.64","796.8275","2.816767"
"5.65","797.4943","2.821833"
"5.66","798.1833","2.8267"
"5.67","798.866","2.8317"
"5.68","799.5224","2.836767"
"5.69","800.151","2.841667"
"5.7","800.7534","2.8466"
"5.71","801.3384","2.8515"
"5.72","801.9114","2.856333"
"5.73","802.455","2.861433"
"5.74","802.9501","2.866367"
"5.75","803.4023","2.8713"
"5.76","803.8362","2.8764"
"5.77","804.2741","2.881367"
"5.78","804.7151","2.886467"
"5.79","805.1499","2.891633"
"5.8","805.587","2.896567"
"5.81","806.0487","2.9016"
"5.82","806.5343","2.906667"
"5.83","807.0207","2.911733"
"5.84","807.4816","2.916867"
"5.85","807.9124","2.9218"
"5.86","808.3272","2.926733"
"5.87","808.7301","2.9317"
"5.88","809.1076","2.936533"
"5.89","809.4438","2.941533"
"5.9","809.7331","2.946667"
"5.91","809.9962","2.951533"
"5.92","810.2648","2.956367"
"5.93","810.5612","2.9613"
"5.94","810.8687","2.966267"
"5.95","811.1469","2.971467"
"5.96","811.3813","2.976533"
"5.97","811.6126","2.9816"
"5.98","811.8765","2.986767"
"5.99","812.1721","2.9918"
"6","812.4693","2.9969"
"6.01","812.7451","3.002"
"6.02","813.0018","3.006833"
"6.03","813.2386","3.0117"
"6.04","813.446","3.016633"
"6.05","813.6042","3.021467"
"6.06","813.7043","3.026533"
"6.07","813.756","3.031533"
"6.08","813.7862","3.036367"
"6.09","813.822","3.041433"
"6.1","813.876","3.046467"
"6.11","813.938","3.051567"
"6.12","813.9944","3.056767"
"6.13","814.0564","3.0618"
"6.14","814.1438","3.0669"
"6.15","814.2551","3.071867"
"6.16","814.3735","3.076633"
"6.17","814.4824","3.081667"
"6.18","814.5507","3.0867"
"6.19","814.5618","3.0916"
"6.2","814.5261","3.096633"
"6.21","814.4792","3.101533"
"6.22","814.4426","3.106367"
"6.23","814.4132","3.111533"
"6.24","814.3687","3.116533"
"6.25","814.2972","3.121467"
"6.26","814.2145","3.1265"
"6.27","814.1501","3.131433"
"6.28","814.1049","3.136533"
"6.29","814.05","3.1417"
"6.3","813.9761","3.146667"
"6.31","813.907","3.1518"
"6.32","813.8617","3.156833"
"6.33","813.8243","3.161833"
"6.34","813.7576","3.166967"
"6.35","813.6479","3.171933"
"6.36","813.5057","3.176833"
"6.37","813.3427","3.1818"
"6.38","813.1599","3.186633"
"6.39","812.9549","3.191633"
"6.4","812.7213","3.196667"
"6.41","812.4645","3.201333"
"6.42","812.1975","3.206267"
"6.43","811.9337","3.211367"
"6.44","811.6595","3.216367"
"6.45","811.3527","3.221533"
"6.46","811.0372","3.2266"
"6.47","810.7615","3.231533"
"6.48","810.5421","3.236767"
"6.49","810.3482","3.241867"
"6.5","810.1431","3.246933"
"6.51","809.9191","3.251967"
"6.52","809.6957","3.256833"
"6.53","809.4732","3.261733"
"6.54","809.2276","3.2666"
"6.55","808.9336","3.271433"
"6.56","808.5871","3.276467"
"6.57","808.1953","3.281533"
"6.58","807.7892","3.2863"
"6.59","807.3973","3.291367"
"6.6","806.4405","3.297167"
"6.61","790.9131","3.302567"
"6.62","712.4519","3.3074"
"6.63","525.4221","3.312033"
"6.64","280.9691","3.316967"
"6.65","101.8222","3.322"
"6.66","33.56377","3.326833"
"6.67","23.44211","3.331733"
"6.68","22.59334","3.3368"
"6.69","21.13104","3.3417"
"6.7","20.76944","3.346633"
"6.71","21.0166","3.3515"
"6.72","20.94587","3.356367"
"6.73","20.34823","3.361433"
"6.74","19.87378","3.366467"
"6.75","20.03431","3.3714"
"6.76","20.2028","3.376467"
"6.77","19.92305","3.3815"
"6.78","19.68543","3.386633"
"6.79","19.86186","3.391733"
"6.8","20.02954","3.396633"
"6.81","19.83961","3.4017"
"6.82","19.65443","3.4068"
"6.83","19.79589","3.4118"
"6.84","19.94213","3.416933"
"6.85","19.78397","3.421867"
"6.86","19.6147","3.426733"
"6.87","19.73311","3.4317"
"6.88","19.87537","3.436567"
"6.89","19.74424","3.441533"
"6.9","19.57893","3.446567"
"6.91","19.67907","3.451433"
"6.92","19.83325","3.456333"
"6.93","19.73549","3.461333"
"6.94","19.56145","3.466333"
"6.95","19.62105","3.471533"
"6.96","19.77046","3.4766"
"6.97","19.70848","3.4816"
"6.98","19.54397","3.486733"
"6.99","19.57655","3.491767"
"7","19.72437","3.496867"
"7.01","19.70371","3.501933"
"7.02","19.56383","3.506767"
"7.03","19.56781","3.5117"
"7.04","19.68622","3.5166"
"7.05","19.67669","3.5214"
"7.06","19.55906","3.526433"
"7.07","19.55032","3.5314"
"7.08","19.64569","3.536267"
"7.09","19.64331","3.5413"
"7.1","19.54079","3.5464"
"7.11","19.51933","3.551467"
"7.12","19.58768","3.5567"
"7.13","19.5837","3.5617"
"7.14","19.50582","3.566767"
"7.15","19.49867","3.571867"
"7.16","19.56383","3.576733"
"7.17","19.57019","3.581767"
"7.18","19.52092","3.5868"
"7.19","19.5384","3.591733"
"7.2","19.60993","3.5967"
"7.21","19.60993","3.601567"
"7.22","19.54953","3.606433"
"7.23","19.54953","3.611533"
"7.24","19.60516","3.616467"
"7.25","19.60119","3.6214"
"7.26","19.54953","3.6265"
"7.27","19.55509","3.631533"
"7.28","19.60596","3.636667"
"7.29","19.5996","3.641667"
"7.3","19.5543","3.646533"
"7.31","19.56542","3.651667"
"7.32","19.61867","3.656833"
"7.33","19.61708","3.661867"
"7.34","19.57417","3.666967"
"7.35","19.57655","3.6719"
"7.36","19.61629","3.676767"
"7.37","19.61072","3.681733"
"7.38","19.57417","3.686567"
"7.39","19.57893","3.691533"
"7.4","19.61708","3.696567"
"7.41","19.61946","3.701367"
"7.42","19.59403","3.7063"
"7.43","19.59244","3.7114"
"7.44","19.61231","3.716433"
"7.45","19.60516","3.7216"
"7.46","19.57893","3.726633"
"7.47","19.57893","3.731567"
"7.48","19.59244","3.7367"
"7.49","19.58609","3.741767"
"7.5","19.5686","3.7468"
"7.51","19.57178","3.751867"
"7.52","19.58291","3.7568"
"7.53","19.57496","3.761767"
"7.54","19.56145","3.766633"
"7.55","19.56304","3.771467"
"7.56","19.5686","3.7765"
"7.57","19.55668","3.781533"
"7.58","19.5384","3.786367"
"7.59","19.54079","3.7914"
"7.6","19.5543","3.796467"
"7.61","19.55748","3.8016"
"7.62","19.55509","3.8067"
"7.63","19.56304","3.8117"
"7.64","19.57893","3.816767"
"7.65","19.5837","3.821867"
"7.66","19.57893","3.8268"
"7.67","19.57893","3.831833"
"7.68","19.57973","3.8368"
"7.69","19.57496","3.841667"
"7.7","19.57496","3.846633"
"7.71","19.59085","3.851567"
"7.72","19.60834","3.855733"
"7.73","19.60993","3.857333"