File: degradation_testing/tensile_testing/Resin/Resin_Water/Resin_W_4.csv
"1 _ 1",,
"Time","Force","Stroke"
"sec","N","mm"
"0","0.6055832","6.666667E-05"
"0.01","0.6182988","0.001733333"
"0.02","0.6357829","0.006033333"
"0.03","0.6985664","0.01093333"
"0.04","0.9822845","0.01596667"
"0.05","1.87397","0.02103333"
"0.06","3.83536","0.02606667"
"0.07","7.05719","0.031"
"0.08","11.24144","0.03616667"
"0.09","15.8445","0.04126667"
"0.1","20.48254","0.04616667"
"0.11","25.02998","0.05126667"
"0.12","29.46456","0.05633333"
"0.13","33.74736","0.06146667"
"0.14","37.81955","0.06663334"
"0.15","41.6406","0.0716"
"0.16","45.15886","0.07663333"
"0.17","48.2734","0.08173333"
"0.18","50.84674","0.08666667"
"0.19","52.81051","0.09173334"
"0.2","54.21638","0.09673333"
"0.21","55.15973","0.1016"
"0.22","55.70809","0.1066"
"0.23","55.91552","0.1114333"
"0.24","55.85273","0.1163333"
"0.25","55.6167","0.1214333"
"0.26","55.31549","0.1264"
"0.27","55.07549","0.1313333"
"0.28","55.01668","0.1364"
"0.29","55.22966","0.1414333"
"0.3","55.73352","0.1466"
"0.31","56.49805","0.1517"
"0.32","57.49385","0.1566"
"0.33","58.66289","0.1617"
"0.34","59.85658","0.1668"
"0.35","60.82853","0.1718"
"0.36","61.41106","0.1768667"
"0.37","61.64312","0.1818333"
"0.38","61.69478","0.1867667"
"0.39","61.70114","0.1916667"
"0.4","61.7075","0.1965"
"0.41","61.71624","0.2015333"
"0.42","61.72975","0.2066333"
"0.43","61.74485","0.2114333"
"0.44","61.75677","0.2163"
"0.45","61.76074","0.2213667"
"0.46","61.75677","0.2264667"
"0.47","61.75836","0.2316333"
"0.48","61.76551","0.2366333"
"0.49","61.76313","0.2416"
"0.5","61.74326","0.2468"
"0.51","61.72578","0.2518333"
"0.52","61.72578","0.2568667"
"0.53","61.72975","0.2618667"
"0.54","61.71227","0.2667333"
"0.55","61.68525","0.2717333"
"0.56","61.67173","0.2766333"
"0.57","61.67014","0.2814667"
"0.58","61.67014","0.2865"
"0.59","61.66935","0.2914667"
"0.6","61.67889","0.2962667"
"0.61","61.70034","0.3013333"
"0.62","61.72816","0.3063333"
"0.63","61.75677","0.3115"
"0.64","61.78141","0.3166333"
"0.65","61.79889","0.3216"
"0.66","61.81638","0.3267667"
"0.67","61.83227","0.3318667"
"0.68","61.83942","0.3367667"
"0.69","61.83704","0.3417667"
"0.7","61.83465","0.3467667"
"0.71","61.84101","0.3516667"
"0.72","61.85055","0.3566667"
"0.73","61.85929","0.3615"
"0.74","61.86406","0.3663667"
"0.75","61.86644","0.3714667"
"0.76","61.86803","0.3764333"
"0.77","61.86962","0.3814"
"0.78","61.87757","0.3865"
"0.79","61.89505","0.3914333"
"0.8","61.92207","0.3965333"
"0.81","61.95068","0.4016334"
"0.82","61.97214","0.4066667"
"0.83","61.98327","0.4118"
"0.84","61.98565","0.4168667"
"0.85","61.97929","0.4218667"
"0.86","61.96896","0.4269667"
"0.87","61.9777","0.4319333"
"0.88","62.11758","0.4368"
"0.89","62.69137","0.4418"
"0.9","64.10837","0.4466"
"0.91","66.5164","0.4515"
"0.92","69.64207","0.4565333"
"0.93","73.06576","0.4613"
"0.94","76.48786","0.4662667"
"0.95","79.70969","0.4713"
"0.96","82.55879","0.4764"
"0.97","84.93026","0.4816333"
"0.98","86.8233","0.4866333"
"0.99","88.30547","0.4916"
"1","89.45147","0.4967667"
"1.01","90.31454","0.5018667"
"1.02","90.95033","0.5069"
"1.03","91.46452","0.5119"
"1.04","92.02242","0.5167"
"1.05","92.80761","0.5216333"
"1.06","93.97507","0.5265667"
"1.07","95.6432","0.5314333"
"1.08","97.91692","0.5364333"
"1.09","100.8638","0.5414333"
"1.1","104.4512","0.5463"
"1.11","108.5512","0.5514"
"1.12","112.9921","0.5564667"
"1.13","117.6294","0.5615333"
"1.14","122.3715","0.5666667"
"1.15","127.1733","0.5716333"
"1.16","131.9957","0.5767334"
"1.17","136.7911","0.5818334"
"1.18","141.5141","0.5867333"
"1.19","146.1339","0.5917333"
"1.2","150.6488","0.5967333"
"1.21","155.0754","0.6016333"
"1.22","159.417","0.6065667"
"1.23","163.695","0.6114333"
"1.24","167.9532","0.6163334"
"1.25","172.2392","0.6214667"
"1.26","176.5553","0.6264333"
"1.27","180.8874","0.6314334"
"1.28","185.2218","0.6365"
"1.29","189.5444","0.6414334"
"1.3","193.8287","0.6465"
"1.31","198.0718","0.6516333"
"1.32","202.3077","0.6565667"
"1.33","206.5524","0.6616667"
"1.34","210.793","0.6667"
"1.35","215.0107","0.6717667"
"1.36","219.1877","0.6768667"
"1.37","223.3219","0.6818333"
"1.38","227.4283","0.6867334"
"1.39","231.5148","0.6917"
"1.4","235.5742","0.6965"
"1.41","239.5821","0.7014667"
"1.42","243.5168","0.7065667"
"1.43","247.3927","0.7114"
"1.44","251.2471","0.7163666"
"1.45","255.1142","0.7213333"
"1.46","258.9957","0.7263667"
"1.47","262.8644","0.7315333"
"1.48","266.7006","0.7365333"
"1.49","270.5177","0.7415"
"1.5","274.3403","0.7466667"
"1.51","278.1638","0.7517667"
"1.52","281.9538","0.7568667"
"1.53","285.693","0.7619666"
"1.54","289.4028","0.7667333"
"1.55","293.0983","0.7716333"
"1.56","296.7572","0.7765334"
"1.57","300.3327","0.7813666"
"1.58","303.7946","0.7864667"
"1.59","307.1594","0.7914667"
"1.6","310.4703","0.7963333"
"1.61","313.7541","0.8014333"
"1.62","317.0172","0.8064667"
"1.63","320.2407","0.8115"
"1.64","323.414","0.8166667"
"1.65","326.5587","0.8216667"
"1.66","329.6956","0.8267667"
"1.67","332.8164","0.8318667"
"1.68","335.9048","0.8367667"
"1.69","338.9454","0.8417333"
"1.7","341.9264","0.8467667"
"1.71","344.8272","0.8516667"
"1.72","347.6175","0.8566334"
"1.73","350.2838","0.8615"
"1.74","352.8301","0.8664"
"1.75","355.2508","0.8715"
"1.76","357.5476","0.8764667"
"1.77","359.7498","0.8814334"
"1.78","361.9035","0.8865667"
"1.79","364.0302","0.8915"
"1.8","366.1172","0.8965667"
"1.81","368.1461","0.9016"
"1.82","370.121","0.9065667"
"1.83","372.0403","0.9117"
"1.84","373.9039","0.9167667"
"1.85","375.7087","0.9218"
"1.86","377.4691","0.9269333"
"1.87","379.2079","0.9318"
"1.88","380.9444","0.9367"
"1.89","382.6721","0.9416667"
"1.9","384.3721","0.9464667"
"1.91","386.037","0.9515"
"1.92","387.6726","0.9565334"
"1.93","389.2978","0.9613"
"1.94","390.9373","0.9662334"
"1.95","392.6118","0.9713"
"1.96","394.3117","0.9763667"
"1.97","396.0061","0.9815333"
"1.98","397.7005","0.9865667"
"1.99","399.437","0.9915667"
"2","401.2259","0.9967667"
"2.01","403.0355","1.001767"
"2.02","404.8308","1.006833"
"2.03","406.6157","1.011867"
"2.04","408.4039","1.016767"
"2.05","410.1944","1.0217"
"2.06","411.9762","1.0266"
"2.07","413.7365","1.0314"
"2.08","415.4619","1.036467"
"2.09","417.1459","1.041467"
"2.1","418.7997","1.046333"
"2.11","420.4432","1.051433"
"2.12","422.0947","1.0565"
"2.13","423.7533","1.0616"
"2.14","425.4158","1.0668"
"2.15","427.0999","1.071767"
"2.16","428.8188","1.0768"
"2.17","430.5569","1.081867"
"2.18","432.287","1.086767"
"2.19","433.9973","1.0918"
"2.2","435.6893","1.0968"
"2.21","437.3519","1.101667"
"2.22","438.9779","1.106667"
"2.23","440.5761","1.111533"
"2.24","442.1584","1.1164"
"2.25","443.7177","1.121533"
"2.26","445.2403","1.126467"
"2.27","446.7265","1.1314"
"2.28","448.1983","1.136433"
"2.29","449.6852","1.141433"
"2.3","451.1786","1.146567"
"2.31","452.6663","1.151667"
"2.32","454.1596","1.1566"
"2.33","455.6711","1.1617"
"2.34","457.1827","1.166733"
"2.35","458.6609","1.171767"
"2.36","460.0875","1.176833"
"2.37","461.4671","1.181733"
"2.38","462.8213","1.186667"
"2.39","464.1644","1.1916"
"2.4","465.4916","1.196433"
"2.41","466.7831","1.201433"
"2.42","468.0292","1.2065"
"2.43","469.2411","1.211367"
"2.44","470.4452","1.2163"
"2.45","471.6627","1.2213"
"2.46","472.8818","1.226367"
"2.47","474.0707","1.231533"
"2.48","475.2231","1.236567"
"2.49","476.369","1.241567"
"2.5","477.5325","1.246733"
"2.51","478.7","1.2518"
"2.52","479.8349","1.2569"
"2.53","480.9141","1.261967"
"2.54","481.9401","1.266767"
"2.55","482.9145","1.2717"
"2.56","483.8212","1.2766"
"2.57","484.6223","1.281433"
"2.58","485.2923","1.286467"
"2.59","485.8478","1.291433"
"2.6","486.3469","1.2963"
"2.61","486.8452","1.3014"
"2.62","487.3975","1.306467"
"2.63","488.0444","1.3116"
"2.64","488.8058","1.316733"
"2.65","489.6689","1.3217"
"2.66","490.5939","1.3268"
"2.67","491.5381","1.331867"
"2.68","492.4742","1.336733"
"2.69","493.4009","1.341767"
"2.7","494.3355","1.346767"
"2.71","495.2932","1.351633"
"2.72","496.2722","1.3566"
"2.73","497.276","1.361467"
"2.74","498.2996","1.366333"
"2.75","499.3359","1.371467"
"2.76","500.381","1.376433"
"2.77","501.4364","1.381367"
"2.78","502.5037","1.3864"
"2.79","503.5877","1.3914"
"2.8","504.6972","1.396533"
"2.81","505.8408","1.401633"
"2.82","507.0424","1.4066"
"2.83","508.3132","1.411733"
"2.84","509.638","1.416833"
"2.85","510.9843","1.421833"
"2.86","512.3393","1.426967"
"2.87","513.715","1.431867"
"2.88","515.1168","1.436733"
"2.89","516.5259","1.441733"
"2.9","517.9286","1.446567"
"2.91","519.3226","1.451467"
"2.92","520.7197","1.4564"
"2.93","522.1335","1.4612"
"2.94","523.5751","1.466233"
"2.95","525.0406","1.471367"
"2.96","526.5323","1.476433"
"2.97","528.0614","1.481567"
"2.98","529.6461","1.486533"
"2.99","531.2888","1.491567"
"3","532.9633","1.496733"
"3.01","534.6338","1.501767"
"3.02","536.29","1.506867"
"3.03","537.9478","1.511933"
"3.04","539.6207","1.516767"
"3.05","541.3127","1.521733"
"3.06","542.9975","1.526533"
"3.07","544.6394","1.531333"
"3.08","546.2194","1.536433"
"3.09","547.7357","1.5415"
"3.1","549.2107","1.5463"
"3.11","550.681","1.551333"
"3.12","552.1965","1.556433"
"3.13","553.7629","1.561567"
"3.14","555.3579","1.566733"
"3.15","556.9832","1.571733"
"3.16","558.6569","1.576767"
"3.17","560.3759","1.5818"
"3.18","562.0988","1.586667"
"3.19","563.7797","1.5917"
"3.2","565.4009","1.596767"
"3.21","566.9777","1.6017"
"3.22","568.5306","1.606633"
"3.23","570.0811","1.611433"
"3.24","571.6252","1.616367"
"3.25","573.1344","1.621533"
"3.26","574.588","1.626467"
"3.27","575.9978","1.6314"
"3.28","577.4149","1.636467"
"3.29","578.8621","1.641467"
"3.3","580.3156","1.6466"
"3.31","581.754","1.6517"
"3.32","583.202","1.656667"
"3.33","584.681","1.661767"
"3.34","586.1807","1.6668"
"3.35","587.6676","1.6718"
"3.36","589.1212","1.6769"
"3.37","590.5461","1.6818"
"3.38","591.9489","1.686767"
"3.39","593.3165","1.691767"
"3.4","594.6398","1.696567"
"3.41","595.9185","1.701567"
"3.42","597.1559","1.7066"
"3.43","598.3607","1.711367"
"3.44","599.5544","1.716267"
"3.45","600.7632","1.721267"
"3.46","601.9879","1.726367"
"3.47","603.2022","1.7316"
"3.48","604.4125","1.736667"
"3.49","605.673","1.741633"
"3.5","607.0105","1.746767"
"3.51","608.3894","1.7518"
"3.52","609.7515","1.7569"
"3.53","611.0851","1.761967"
"3.54","612.4091","1.766733"
"3.55","613.7387","1.7717"
"3.56","615.0619","1.776567"
"3.57","616.351","1.7814"
"3.58","617.5971","1.786467"
"3.59","618.8186","1.791467"
"3.6","620.0401","1.796267"
"3.61","621.2831","1.801367"
"3.62","622.5554","1.8064"
"3.63","623.8389","1.811533"
"3.64","625.1263","1.816667"
"3.65","626.4472","1.821633"
"3.66","627.826","1.826767"
"3.67","629.2454","1.831767"
"3.68","630.6752","1.836533"
"3.69","632.1088","1.841633"
"3.7","633.5402","1.846733"
"3.71","634.9659","1.851667"
"3.72","636.402","1.8567"
"3.73","637.8865","1.861567"
"3.74","639.418","1.8664"
"3.75","640.9494","1.8715"
"3.76","642.4443","1.876467"
"3.77","643.9066","1.881367"
"3.78","645.353","1.886433"
"3.79","646.7994","1.891467"
"3.8","648.2402","1.896567"
"3.81","649.6684","1.9017"
"3.82","651.0917","1.9066"
"3.83","652.5294","1.911733"
"3.84","653.9678","1.916767"
"3.85","655.3912","1.921767"
"3.86","656.7867","1.9269"
"3.87","658.172","1.931833"
"3.88","659.5588","1.936767"
"3.89","660.9384","1.941733"
"3.9","662.2982","1.9466"
"3.91","663.631","1.951567"
"3.92","664.9399","1.9565"
"3.93","666.2377","1.961233"
"3.94","667.5347","1.9662"
"3.95","668.8333","1.9713"
"3.96","670.1263","1.976367"
"3.97","671.4146","1.981567"
"3.98","672.7298","1.986567"
"3.99","674.1078","1.9916"
"4","675.5344","1.9968"
"4.01","676.972","2.001867"
"4.02","678.3962","2.006867"
"4.03","679.814","2.011867"
"4.04","681.239","2.0167"
"4.05","682.6528","2.0216"
"4.06","684.0237","2.0265"
"4.07","685.3414","2.031367"
"4.08","686.6169","2.036433"
"4.09","687.8757","2.041467"
"4.1","689.1378","2.046333"
"4.11","690.4181","2.0514"
"4.12","691.7246","2.056467"
"4.13","693.0431","2.0616"
"4.14","694.3591","2.066767"
"4.15","695.684","2.071767"
"4.16","697.0389","2.076867"
"4.17","698.4163","2.081833"
"4.18","699.7959","2.086667"
"4.19","701.1613","2.0917"
"4.2","702.5004","2.0967"
"4.21","703.8021","2.101633"
"4.22","705.0689","2.1066"
"4.23","706.3309","2.111467"
"4.24","707.5953","2.116367"
"4.25","708.8439","2.121467"
"4.26","710.0558","2.126367"
"4.27","711.2336","2.131333"
"4.28","712.4042","2.136433"
"4.29","713.5892","2.141467"
"4.3","714.7797","2.146633"
"4.31","715.9766","2.151667"
"4.32","717.1989","2.156633"
"4.33","718.4521","2.161767"
"4.34","719.7142","2.166767"
"4.35","720.9619","2.1718"
"4.36","722.1906","2.1769"
"4.37","723.4073","2.1818"
"4.38","724.6097","2.186767"
"4.39","725.7938","2.1917"
"4.4","726.9589","2.1965"
"4.41","728.1033","2.2015"
"4.42","729.2223","2.2066"
"4.43","730.323","2.211367"
"4.44","731.4229","2.2163"
"4.45","732.5498","2.221267"
"4.46","733.7014","2.2263"
"4.47","734.849","2.231533"
"4.48","735.9854","2.2366"
"4.49","737.1426","2.241633"
"4.5","738.3505","2.2468"
"4.51","739.6022","2.2518"
"4.52","740.8619","2.256933"
"4.53","742.0961","2.261967"
"4.54","743.3049","2.266767"
"4.55","744.5105","2.271733"
"4.56","745.7097","2.2766"
"4.57","746.8804","2.281467"
"4.58","748.0025","2.286533"
"4.59","749.077","2.2915"
"4.6","750.1308","2.296333"
"4.61","751.1878","2.301467"
"4.62","752.2623","2.3065"
"4.63","753.3431","2.3116"
"4.64","754.4168","2.316733"
"4.65","755.4992","2.3217"
"4.66","756.6015","2.3269"
"4.67","757.7149","2.3319"
"4.68","758.8235","2.336667"
"4.69","759.9243","2.341733"
"4.7","761.017","2.346767"
"4.71","762.0828","2.351667"
"4.72","763.1135","2.3566"
"4.73","764.1355","2.361433"
"4.74","765.1663","2.366333"
"4.75","766.1851","2.371467"
"4.76","767.1674","2.376367"
"4.77","768.1251","2.381333"
"4.78","769.0898","2.386433"
"4.79","770.0769","2.3914"
"4.8","771.0632","2.3965"
"4.81","772.0399","2.401633"
"4.82","773.0245","2.4066"
"4.83","774.0331","2.4117"
"4.84","775.0607","2.416733"
"4.85","776.0922","2.421767"
"4.86","777.1158","2.426933"
"4.87","778.1339","2.431833"
"4.88","779.1487","2.436767"
"4.89","780.1628","2.4417"
"4.9","781.1626","2.4465"
"4.91","782.125","2.4515"
"4.92","783.0374","2.456467"
"4.93","783.9243","2.4612"
"4.94","784.8184","2.4662"
"4.95","785.7347","2.4713"
"4.96","786.6573","2.476367"
"4.97","787.576","2.481567"
"4.98","788.521","2.486533"
"4.99","789.5287","2.491567"
"5","790.5928","2.496767"
"5.01","791.6713","2.501867"
"5.02","792.7259","2.506933"
"5.03","793.7559","2.511967"
"5.04","794.7747","2.5168"
"5.05","795.7753","2.521667"
"5.06","796.7297","2.526533"
"5.07","797.6151","2.5314"
"5.08","798.4193","2.536467"
"5.09","799.1576","2.541533"
"5.1","799.8752","2.546367"
"5.11","800.6064","2.551433"
"5.12","801.3606","2.556467"
"5.13","802.1156","2.561533"
"5.14","802.8253","2.566733"
"5.15","803.4802","2.571767"
"5.16","804.1072","2.576833"
"5.17","804.7493","2.581867"
"5.18","805.4241","2.586733"
"5.19","806.1115","2.591767"
"5.2","806.7862","2.596733"
"5.21","807.4395","2.601633"
"5.22","808.0745","2.606567"
"5.23","808.6968","2.611467"
"5.24","809.2991","2.616367"
"5.25","809.8721","2.621467"
"5.26","810.4205","2.626333"
"5.27","810.9554","2.6313"
"5.28","811.4942","2.636367"
"5.29","812.0497","2.6414"
"5.3","812.6155","2.646567"
"5.31","813.1822","2.651667"
"5.32","813.7623","2.656533"
"5.33","814.3774","2.6616"
"5.34","815.022","2.6667"
"5.35","815.6633","2.671767"
"5.36","816.2697","2.676867"
"5.37","816.8538","2.681833"
"5.38","817.4356","2.686733"
"5.39","818.0173","2.6917"
"5.4","818.5736","2.696533"
"5.41","819.0926","2.701533"
"5.42","819.5703","2.7066"
"5.43","820.024","2.7114"
"5.44","820.4794","2.716333"
"5.45","820.9602","2.7213"
"5.46","821.4553","2.7263"
"5.47","821.9242","2.731467"
"5.48","822.3613","2.736533"
"5.49","822.8016","2.741633"
"5.5","823.2721","2.746767"
"5.51","823.7696","2.751833"
"5.52","824.2647","2.756967"
"5.53","824.7352","2.762033"
"5.54","825.1786","2.7668"
"5.55","825.5975","2.7717"
"5.56","825.994","2.7766"
"5.57","826.3484","2.781433"
"5.58","826.6417","2.7865"
"5.59","826.8953","2.7915"
"5.6","827.1472","2.796367"
"5.61","827.4229","2.801433"
"5.62","827.709","2.806467"
"5.63","827.9761","2.8116"
"5.64","828.2105","2.816733"
"5.65","828.4426","2.821733"
"5.66","828.6985","2.8269"
"5.67","828.9758","2.831833"
"5.68","829.2651","2.836633"
"5.69","829.552","2.8417"
"5.7","829.8182","2.846733"
"5.71","830.0479","2.8516"
"5.72","830.2466","2.856567"
"5.73","830.4381","2.861467"
"5.74","830.6146","2.8664"
"5.75","830.756","2.8715"
"5.76","830.8618","2.876467"
"5.77","830.9555","2.881433"
"5.78","831.0596","2.8865"
"5.79","831.1772","2.891433"
"5.8","831.3004","2.896567"
"5.81","831.4204","2.901667"
"5.82","831.5364","2.906633"
"5.83","831.6556","2.911767"
"5.84","831.786","2.9168"
"5.85","831.9163","2.921833"
"5.86","832.0339","2.927"
"5.87","832.1325","2.9319"
"5.88","832.2183","2.9368"
"5.89","832.2835","2.9418"
"5.9","832.3121","2.9466"
"5.91","832.2986","2.951567"
"5.92","832.2509","2.956533"
"5.93","832.181","2.961233"
"5.94","832.0936","2.966233"
"5.95","832.0005","2.971367"
"5.96","831.9092","2.9764"
"5.97","831.8138","2.9816"
"5.98","831.7335","2.986567"
"5.99","831.6978","2.991567"
"6","831.7042","2.996767"
"6.01","831.72","3.0018"
"6.02","831.7169","3.006867"
"6.03","831.693","3.0119"
"6.04","831.6644","3.016733"
"6.05","831.6279","3.0217"
"6.06","831.5659","3.026567"
"6.07","831.4673","3.031367"
"6.08","831.3227","3.036467"
"6.09","831.1351","3.041467"
"6.1","830.9197","3.046267"
"6.11","830.7059","3.051367"
"6.12","830.5073","3.056433"
"6.13","830.3197","3.0615"
"6.14","830.1362","3.0667"
"6.15","829.9645","3.071667"
"6.16","829.8174","3.0768"
"6.17","829.6911","3.0819"
"6.18","829.5727","3.0868"
"6.19","826.9127","3.0926"
"6.2","796.5867","3.0976"
"6.21","680.3076","3.102033"
"6.22","457.1478","3.106833"
"6.23","216.7845","3.1116"
"6.24","73.46233","3.116467"
"6.25","32.86203","3.121533"
"6.26","29.5488","3.126467"
"6.27","28.54506","3.1314"
"6.28","27.32833","3.136433"
"6.29","26.78235","3.141433"
"6.3","26.77361","3.146567"
"6.31","26.4589","3.1517"
"6.32","25.80643","3.156667"
"6.33","25.67371","3.161733"
"6.34","26.03769","3.166767"
"6.35","26.06471","3.1718"
"6.36","25.65702","3.1769"
"6.37","25.53304","3.181833"
"6.38","25.8104","3.1867"
"6.39","25.86206","3.191667"
"6.4","25.56483","3.1965"
"6.41","25.47344","3.2015"
"6.42","25.70788","3.206533"
"6.43","25.76113","3.2114"
"6.44","25.51556","3.2163"
"6.45","25.4488","3.221333"
"6.46","25.67371","3.2264"
"6.47","25.74047","3.2316"
"6.48","25.5092","3.2366"
"6.49","25.40827","3.241633"
"6.5","25.59821","3.2468"
"6.51","25.68722","3.251833"
"6.52","25.48853","3.2569"
"6.53","25.36694","3.2619"
"6.54","25.53383","3.2667"
"6.55","25.66496","3.271633"
"6.56","25.52032","3.276567"
"6.57","25.37807","3.281367"
"6.58","25.48456","3.2864"
"6.59","25.60774","3.2914"
"6.6","25.50761","3.296233"
"6.61","25.37966","3.3014"
"6.62","25.45118","3.306433"
"6.63","25.56006","3.311533"
"6.64","25.48297","3.316667"
"6.65","25.35582","3.321667"
"6.66","25.39078","3.326833"
"6.67","25.4782","3.331867"
"6.68","25.43291","3.3367"
"6.69","25.34707","3.3418"
"6.7","25.39317","3.3468"
"6.71","25.48536","3.3517"
"6.72","25.4631","3.3567"
"6.73","25.40032","3.361567"
"6.74","25.44006","3.366467"
"6.75","25.51158","3.3715"
"6.76","25.4782","3.376367"
"6.77","25.41542","3.381333"
"6.78","25.45357","3.386467"
"6.79","25.52191","3.391533"
"6.8","25.48933","3.396667"
"6.81","25.42019","3.4017"
"6.82","25.4488","3.406633"
"6.83","25.51079","3.411733"
"6.84","25.4782","3.4168"
"6.85","25.41065","3.4218"
"6.86","25.43291","3.4269"
"6.87","25.49569","3.431833"
"6.88","25.47741","3.436733"
"6.89","25.42019","3.441733"
"6.9","25.43608","3.4465"
"6.91","25.49171","3.451533"
"6.92","25.47741","3.456567"
"6.93","25.42019","3.4613"
"6.94","25.42655","3.4663"
"6.95","25.47423","3.471433"
"6.96","25.46072","3.4765"
"6.97","25.40827","3.4816"
"6.98","25.41304","3.4866"
"6.99","25.45754","3.4916"
"7","25.45277","3.496767"
"7.01","25.41065","3.501833"
"7.02","25.41304","3.506867"
"7.03","25.4488","3.511867"
"7.04","25.44483","3.516733"
"7.05","25.41145","3.5217"
"7.06","25.41542","3.526567"
"7.07","25.44721","3.531367"
"7.08","25.44403","3.5365"
"7.09","25.41145","3.5415"
"7.1","25.40509","3.5463"
"7.11","25.42257","3.551367"
"7.12","25.4178","3.5564"
"7.13","25.39158","3.5615"
"7.14","25.39317","3.566667"
"7.15","25.4178","3.571667"
"7.16","25.42496","3.576767"
"7.17","25.41542","3.5819"
"7.18","25.41939","3.5868"
"7.19","25.43529","3.591767"
"7.2","25.4337","3.596767"
"7.21","25.4178","3.6016"
"7.22","25.4178","3.606633"
"7.23","25.43291","3.611533"
"7.24","25.43608","3.6164"
"7.25","25.43131","3.6215"
"7.26","25.44403","3.6264"
"7.27","25.46708","3.631333"
"7.28","25.46946","3.636367"
"7.29","25.45277","3.6414"
"7.3","25.44641","3.6466"
"7.31","25.45595","3.651667"
"7.32","25.45516","3.6566"
"7.33","25.44244","3.6617"
"7.34","25.44641","3.666767"
"7.35","25.4631","3.671767"
"7.36","25.46946","3.676867"
"7.37","25.46469","3.6818"
"7.38","25.46628","3.686733"
"7.39","25.47105","3.691433"
"7.4","25.46708","3.693567"
"7.41","25.45516","3.694067"