File: degradation_testing/tensile_testing/Resin/Resin_Water/Resin_W_1.csv
"1 _ 1",,
"Time","Force","Stroke"
"sec","N","mm"
"0","1.773039","6.666667E-05"
"0.01","1.769066","0.001733333"
"0.02","1.777808","0.005966667"
"0.03","1.837412","0.01076667"
"0.04","2.081394","0.01573333"
"0.05","2.81175","0.02076667"
"0.06","4.446507","0.02603333"
"0.07","7.253488","0.03116667"
"0.08","11.096","0.03596667"
"0.09","15.55522","0.04106667"
"0.1","20.27035","0.04616667"
"0.11","25.03872","0.05136667"
"0.12","29.77689","0.05656667"
"0.13","34.49758","0.0615"
"0.14","39.24608","0.06656667"
"0.15","44.01366","0.07173333"
"0.16","48.74309","0.07676667"
"0.17","53.37636","0.08186667"
"0.18","57.88247","0.0868"
"0.19","62.07943","0.09166667"
"0.2","65.48405","0.09663334"
"0.21","67.62425","0.1015"
"0.22","68.54693","0.1064333"
"0.23","68.7774","0.1115"
"0.24","68.79488","0.1163667"
"0.25","68.77979","0.1212667"
"0.26","68.748","0.1264"
"0.27","68.70349","0.1314333"
"0.28","68.67409","0.1365667"
"0.29","68.68044","0.1416333"
"0.3","68.71223","0.1466667"
"0.31","68.748","0.1518667"
"0.32","68.77264","0.1568"
"0.33","68.79409","0.1616667"
"0.34","68.81952","0.1667667"
"0.35","68.84416","0.1717333"
"0.36","68.86164","0.1766667"
"0.37","68.87118","0.1816333"
"0.38","68.88152","0.1864"
"0.39","68.89264","0.1913667"
"0.4","68.90615","0.1964667"
"0.41","68.92363","0.2014"
"0.42","68.93953","0.2064667"
"0.43","68.94907","0.2114333"
"0.44","68.95145","0.2164"
"0.45","68.95145","0.2216"
"0.46","68.95463","0.2266333"
"0.47","68.9594","0.2316667"
"0.48","68.9594","0.2368"
"0.49","68.94907","0.2418333"
"0.5","68.93714","0.2469"
"0.51","68.93317","0.2519333"
"0.52","68.92999","0.2568"
"0.53","68.91727","0.2618"
"0.54","68.90138","0.2667"
"0.55","68.89105","0.2715333"
"0.56","68.8839","0.2766"
"0.57","68.868","0.2815"
"0.58","68.84177","0.2863333"
"0.59","68.82191","0.2913667"
"0.6","68.81635","0.2963667"
"0.61","68.81714","0.3014667"
"0.62","68.8243","0.3066333"
"0.63","68.83701","0.3115667"
"0.64","68.85449","0.3166667"
"0.65","68.88152","0.3218333"
"0.66","68.91886","0.3268667"
"0.67","68.95303","0.3319333"
"0.68","68.96893","0.3369"
"0.69","68.9737","0.3417667"
"0.7","68.99039","0.3467"
"0.71","69.02377","0.3515333"
"0.72","69.05953","0.3564333"
"0.73","69.08735","0.3615333"
"0.74","69.10006","0.3664"
"0.75","69.10245","0.3713667"
"0.76","69.10483","0.3765"
"0.77","69.11119","0.3815667"
"0.78","69.11755","0.3867"
"0.79","69.11198","0.3917667"
"0.8","69.10245","0.3967333"
"0.81","69.09768","0.4018667"
"0.82","69.09529","0.4068667"
"0.83","69.08655","0.4118333"
"0.84","69.07304","0.4168"
"0.85","69.06191","0.4217333"
"0.86","69.05318","0.4266667"
"0.87","69.03967","0.4316333"
"0.88","69.02377","0.4364667"
"0.89","69.01264","0.4414333"
"0.9","69.00708","0.4464667"
"0.91","69.00629","0.4513667"
"0.92","69.0182","0.4564333"
"0.93","69.05714","0.4615333"
"0.94","69.10483","0.4665667"
"0.95","69.17397","0.4717"
"0.96","69.42352","0.4766333"
"0.97","70.23255","0.4816"
"0.98","72.02943","0.4867333"
"0.99","74.82926","0.4918"
"1","78.10036","0.4969333"
"1.01","81.32855","0.5019667"
"1.02","84.56786","0.5067667"
"1.03","88.19898","0.5116667"
"1.04","92.36177","0.5165667"
"1.05","96.85119","0.5214667"
"1.06","101.4241","0.5265334"
"1.07","105.9651","0.5315334"
"1.08","110.4601","0.5363667"
"1.09","114.9408","0.5413667"
"1.1","119.4414","0.5464"
"1.11","123.9665","0.5514333"
"1.12","128.502","0.5566"
"1.13","133.0543","0.5615"
"1.14","137.6382","0.5665666"
"1.15","142.2437","0.5717334"
"1.16","146.8468","0.5768"
"1.17","151.4292","0.5819333"
"1.18","155.9941","0.5869"
"1.19","160.5535","0.5916667"
"1.2","165.0953","0.5966"
"1.21","169.5808","0.6014333"
"1.22","173.9693","0.6063667"
"1.23","178.2656","0.6114666"
"1.24","182.5174","0.6164"
"1.25","186.7779","0.6213"
"1.26","191.0686","0.6264333"
"1.27","195.3801","0.6314667"
"1.28","199.6883","0.6366"
"1.29","203.9846","0.6417"
"1.3","208.2801","0.6466666"
"1.31","212.5732","0.6518334"
"1.32","216.8457","0.6567667"
"1.33","221.0768","0.6616667"
"1.34","225.2722","0.6667667"
"1.35","229.4477","0.6717"
"1.36","233.6049","0.6766"
"1.37","237.7296","0.6815667"
"1.38","241.8208","0.6863667"
"1.39","245.8699","0.6913667"
"1.4","249.8539","0.6965"
"1.41","253.7592","0.7013667"
"1.42","257.6002","0.7064667"
"1.43","261.4085","0.7115334"
"1.44","265.2089","0.7165334"
"1.45","269.0053","0.7216333"
"1.46","272.8017","0.7266"
"1.47","276.6013","0.7316"
"1.48","280.389","0.7367"
"1.49","284.1361","0.7417"
"1.5","287.8348","0.7468"
"1.51","291.4953","0.7518667"
"1.52","295.132","0.7567"
"1.53","298.7433","0.7616333"
"1.54","302.3132","0.7665667"
"1.55","305.8156","0.7714667"
"1.56","309.2297","0.7765334"
"1.57","312.5676","0.7814667"
"1.58","315.8649","0.7863"
"1.59","319.1495","0.7913333"
"1.6","322.4222","0.7963667"
"1.61","325.6631","0.8014667"
"1.62","328.8579","0.8065667"
"1.63","332.0233","0.8115"
"1.64","335.1736","0.8166"
"1.65","338.2905","0.8217667"
"1.66","341.3447","0.8267667"
"1.67","344.3321","0.8318334"
"1.68","347.29","0.8368334"
"1.69","350.2464","0.8417667"
"1.7","353.1806","0.8467"
"1.71","356.0623","0.8515"
"1.72","358.8629","0.8564333"
"1.73","361.5538","0.8615333"
"1.74","364.124","0.8664333"
"1.75","366.5924","0.8713334"
"1.76","368.9861","0.8764667"
"1.77","371.298","0.8815333"
"1.78","373.4986","0.8867"
"1.79","375.5967","0.8917667"
"1.8","377.6415","0.8967"
"1.81","379.6609","0.9018334"
"1.82","381.6335","0.9068"
"1.83","383.5352","0.9117666"
"1.84","385.3806","0.9168333"
"1.85","387.1989","0.9217667"
"1.86","389.0014","0.9267"
"1.87","390.7697","0.9316334"
"1.88","392.495","0.9364667"
"1.89","394.1631","0.9414667"
"1.9","395.7613","0.9465667"
"1.91","397.2928","0.9514334"
"1.92","398.7837","0.9564334"
"1.93","400.2563","0.9615"
"1.94","401.7186","0.9665"
"1.95","403.1563","0.9716333"
"1.96","404.5781","0.9766334"
"1.97","405.999","0.9816667"
"1.98","407.4184","0.9867333"
"1.99","408.8171","0.9917667"
"2","410.1896","0.9968"
"2.01","411.5319","1.001867"
"2.02","412.8488","1.006767"
"2.03","414.145","1.0117"
"2.04","415.4182","1.0166"
"2.05","416.6555","1.021467"
"2.06","417.846","1.026567"
"2.07","418.9928","1.031567"
"2.08","420.119","1.036367"
"2.09","421.2602","1.041367"
"2.1","422.4364","1.046367"
"2.11","423.6269","1.051533"
"2.12","424.7943","1.056667"
"2.13","425.938","1.061633"
"2.14","427.0927","1.0667"
"2.15","428.2657","1.0718"
"2.16","429.4316","1.076833"
"2.17","430.5633","1.081967"
"2.18","431.6624","1.0869"
"2.19","432.7448","1.091733"
"2.2","433.8121","1.096667"
"2.21","434.8469","1.101533"
"2.22","435.8252","1.106467"
"2.23","436.7375","1.1115"
"2.24","437.5982","1.1164"
"2.25","438.4359","1.121367"
"2.26","439.2735","1.1265"
"2.27","440.1167","1.131533"
"2.28","440.9512","1.136667"
"2.29","441.7817","1.141733"
"2.3","442.6288","1.1467"
"2.31","443.4943","1.1519"
"2.32","444.3542","1.1568"
"2.33","445.1974","1.161667"
"2.34","446.0271","1.166733"
"2.35","446.8362","1.171733"
"2.36","447.5904","1.176633"
"2.37","448.2826","1.181567"
"2.38","448.939","1.186333"
"2.39","449.5867","1.191333"
"2.4","450.2042","1.196467"
"2.41","450.7733","1.201333"
"2.42","451.3224","1.2064"
"2.43","451.8882","1.211467"
"2.44","452.4771","1.216433"
"2.45","453.0692","1.221533"
"2.46","453.6621","1.2266"
"2.47","454.2685","1.231633"
"2.48","454.8995","1.2368"
"2.49","455.5837","1.241767"
"2.5","456.365","1.246833"
"2.51","457.2558","1.2519"
"2.52","458.2175","1.256767"
"2.53","459.1934","1.261733"
"2.54","460.1415","1.2667"
"2.55","461.0467","1.271567"
"2.56","461.9106","1.2765"
"2.57","462.7522","1.281367"
"2.58","463.6073","1.286233"
"2.59","464.4823","1.291333"
"2.6","465.3716","1.2964"
"2.61","466.2744","1.3015"
"2.62","467.2122","1.306567"
"2.63","468.2024","1.311533"
"2.64","469.2475","1.3166"
"2.65","470.3228","1.321733"
"2.66","471.3988","1.326733"
"2.67","472.4741","1.331833"
"2.68","473.5685","1.3368"
"2.69","474.6906","1.341667"
"2.7","475.8294","1.346633"
"2.71","476.9683","1.351433"
"2.72","478.0873","1.356367"
"2.73","479.1753","1.361533"
"2.74","480.241","1.3664"
"2.75","481.3091","1.371333"
"2.76","482.4042","1.376433"
"2.77","483.5312","1.381433"
"2.78","484.662","1.386667"
"2.79","485.793","1.3918"
"2.8","486.954","1.396733"
"2.81","488.1684","1.401767"
"2.82","489.4177","1.4067"
"2.83","490.6678","1.411667"
"2.84","491.8869","1.416733"
"2.85","493.0687","1.421667"
"2.86","494.2242","1.426633"
"2.87","495.3742","1.4316"
"2.88","496.5417","1.436467"
"2.89","497.7266","1.441467"
"2.9","498.9099","1.4465"
"2.91","500.083","1.4514"
"2.92","501.2616","1.456467"
"2.93","502.4632","1.4615"
"2.94","503.6847","1.466533"
"2.95","504.9157","1.471667"
"2.96","506.1738","1.476633"
"2.97","507.4819","1.481633"
"2.98","508.8329","1.486767"
"2.99","510.1999","1.491767"
"3","511.5533","1.496867"
"3.01","512.886","1.501933"
"3.02","514.2029","1.506867"
"3.03","515.519","1.5118"
"3.04","516.8414","1.516633"
"3.05","518.1495","1.521467"
"3.06","519.4092","1.526567"
"3.07","520.6132","1.531567"
"3.08","521.795","1.536367"
"3.09","522.9982","1.5413"
"3.1","524.2483","1.5463"
"3.11","525.5198","1.5515"
"3.12","526.7858","1.5567"
"3.13","528.059","1.561667"
"3.14","529.3719","1.566733"
"3.15","530.6991","1.571833"
"3.16","531.9802","1.576867"
"3.17","533.1937","1.582"
"3.18","534.3922","1.5869"
"3.19","535.6169","1.591733"
"3.2","536.867","1.596633"
"3.21","538.1044","1.601467"
"3.22","539.306","1.606433"
"3.23","540.4782","1.611533"
"3.24","541.6409","1.6164"
"3.25","542.8171","1.6213"
"3.26","544.0219","1.626433"
"3.27","545.2521","1.6315"
"3.28","546.4848","1.636633"
"3.29","547.7158","1.641733"
"3.3","548.9818","1.6467"
"3.31","550.3019","1.651867"
"3.32","551.6529","1.656733"
"3.33","553.0016","1.6616"
"3.34","554.3319","1.666733"
"3.35","555.5828","1.671667"
"3.36","556.5818","1.676633"
"3.37","557.154","1.681667"
"3.38","557.3312","1.686467"
"3.39","557.3368","1.6915"
"3.4","557.3638","1.696567"
"3.41","557.4528","1.7014"
"3.42","557.5538","1.706467"
"3.43","557.6467","1.711533"
"3.44","557.7692","1.716533"
"3.45","557.944","1.721633"
"3.46","558.1418","1.726667"
"3.47","558.3469","1.7317"
"3.48","558.5996","1.7368"
"3.49","558.916","1.7418"
"3.5","559.1782","1.746833"
"3.51","559.1694","1.751933"
"3.52","558.8174","1.756867"
"3.53","558.3223","1.7618"
"3.54","557.944","1.766733"
"3.55","557.7771","1.771567"
"3.56","557.7715","1.7765"
"3.57","557.8589","1.781333"
"3.58","557.9845","1.786167"
"3.59","558.122","1.7913"
"3.6","558.2913","1.796367"
"3.61","558.5472","1.8015"
"3.62","558.9334","1.806633"
"3.63","559.473","1.811533"
"3.64","560.1501","1.816633"
"3.65","560.9178","1.8218"
"3.66","561.7229","1.8268"
"3.67","562.5383","1.831833"
"3.68","563.3752","1.8368"
"3.69","564.251","1.841633"
"3.7","565.1506","1.8466"
"3.71","566.0319","1.851467"
"3.72","566.8561","1.8564"
"3.73","567.6143","1.8615"
"3.74","568.3549","1.8664"
"3.75","569.1481","1.871333"
"3.76","570.0175","1.876433"
"3.77","570.9473","1.881467"
"3.78","571.9081","1.886633"
"3.79","572.9095","1.891733"
"3.8","573.9776","1.896733"
"3.81","575.1165","1.901833"
"3.82","576.3086","1.906767"
"3.83","577.5245","1.911667"
"3.84","578.7372","1.916733"
"3.85","579.9269","1.921633"
"3.86","581.0873","1.9266"
"3.87","582.2388","1.9316"
"3.88","583.3967","1.9364"
"3.89","584.5539","1.9414"
"3.9","585.6943","1.9465"
"3.91","586.8141","1.951367"
"3.92","587.9227","1.956433"
"3.93","589.0361","1.961433"
"3.94","590.1623","1.966433"
"3.95","591.2971","1.9716"
"3.96","592.4479","1.976633"
"3.97","593.636","1.981667"
"3.98","594.8687","1.9868"
"3.99","596.1378","1.9918"
"4","597.4189","1.9969"
"4.01","598.696","2.001933"
"4.02","599.9645","2.006767"
"4.03","601.2225","2.0117"
"4.04","602.471","2.016567"
"4.05","603.7013","2.021467"
"4.06","604.9092","2.0266"
"4.07","606.1093","2.031567"
"4.08","607.3284","2.036367"
"4.09","608.5857","2.041333"
"4.1","609.8843","2.046267"
"4.11","611.186","2.0514"
"4.12","612.4568","2.0566"
"4.13","613.7133","2.0616"
"4.14","615.0071","2.0667"
"4.15","616.3621","2.071833"
"4.16","617.7552","2.076833"
"4.17","619.1444","2.081933"
"4.18","620.5129","2.0869"
"4.19","621.8735","2.091767"
"4.2","623.2333","2.0967"
"4.21","624.5812","2.101533"
"4.22","625.8932","2.1065"
"4.23","627.1585","2.111567"
"4.24","628.3808","2.116433"
"4.25","629.5887","2.121433"
"4.26","630.8134","2.1265"
"4.27","632.0572","2.131533"
"4.28","633.2946","2.1367"
"4.29","634.5233","2.141767"
"4.3","635.7709","2.146767"
"4.31","637.0513","2.1519"
"4.32","638.3499","2.156767"
"4.33","639.6484","2.161667"
"4.34","640.9415","2.166733"
"4.35","642.2225","2.171667"
"4.36","643.483","2.176633"
"4.37","644.7315","2.181567"
"4.38","645.9904","2.1864"
"4.39","647.262","2.191433"
"4.4","648.5208","2.196533"
"4.41","649.7471","2.201433"
"4.42","650.955","2.206467"
"4.43","652.1654","2.211467"
"4.44","653.3631","2.216467"
"4.45","654.4932","2.221633"
"4.46","655.535","2.226667"
"4.47","656.5333","2.231667"
"4.48","657.541","2.236767"
"4.49","658.5693","2.2417"
"4.5","659.5898","2.2468"
"4.51","660.5864","2.2519"
"4.52","661.5695","2.256767"
"4.53","662.5637","2.261733"
"4.54","663.5785","2.266633"
"4.55","664.6029","2.2715"
"4.56","665.6042","2.276567"
"4.57","666.5826","2.2814"
"4.58","667.5617","2.286233"
"4.59","668.5678","2.291333"
"4.6","669.5994","2.2964"
"4.61","670.6428","2.301467"
"4.62","671.7101","2.306567"
"4.63","672.8323","2.3115"
"4.64","674.0157","2.316633"
"4.65","675.2197","2.321833"
"4.66","676.3943","2.326867"
"4.67","677.5204","2.331967"
"4.68","678.6259","2.336867"
"4.69","679.7361","2.3417"
"4.7","680.8448","2.346633"
"4.71","681.9216","2.351533"
"4.72","682.954","2.3565"
"4.73","683.9529","2.361567"
"4.74","684.9464","2.366433"
"4.75","685.9493","2.3713"
"4.76","686.9666","2.3764"
"4.77","687.9854","2.381433"
"4.78","688.9948","2.386667"
"4.79","690.0056","2.3918"
"4.8","691.0523","2.396733"
"4.81","692.1434","2.4018"
"4.82","693.2576","2.4068"
"4.83","694.3615","2.4117"
"4.84","695.436","2.4168"
"4.85","696.4874","2.4217"
"4.86","697.5269","2.426633"
"4.87","698.5593","2.431567"
"4.88","699.5908","2.436367"
"4.89","700.6168","2.4414"
"4.9","701.6262","2.446467"
"4.91","702.6148","2.451333"
"4.92","703.6027","2.456333"
"4.93","704.6159","2.4614"
"4.94","705.6419","2.466467"
"4.95","706.6568","2.4716"
"4.96","707.6732","2.476567"
"4.97","708.7294","2.481533"
"4.98","709.8286","2.486667"
"4.99","710.9277","2.491667"
"5","711.9998","2.4968"
"5.01","713.0551","2.501867"
"5.02","714.1248","2.506733"
"5.03","715.2081","2.5117"
"5.04","716.2833","2.516567"
"5.05","717.3276","2.521433"
"5.06","718.3274","2.526533"
"5.07","719.2898","2.531533"
"5.08","720.2379","2.536333"
"5.09","721.2075","2.541333"
"5.1","722.2144","2.5463"
"5.11","723.2332","2.551433"
"5.12","724.2441","2.5566"
"5.13","725.2606","2.561533"
"5.14","726.3144","2.566667"
"5.15","727.4","2.571767"
"5.16","728.4888","2.576833"
"5.17","729.5624","2.581967"
"5.18","730.6266","2.586867"
"5.19","731.6947","2.5917"
"5.2","732.7557","2.5967"
"5.21","733.792","2.601533"
"5.22","734.7886","2.606467"
"5.23","735.7422","2.611533"
"5.24","736.6705","2.6164"
"5.25","737.6019","2.621367"
"5.26","738.5604","2.6265"
"5.27","739.5443","2.6315"
"5.28","740.5377","2.636667"
"5.29","741.539","2.6418"
"5.3","742.565","2.646767"
"5.31","743.6196","2.651867"
"5.32","744.6933","2.6567"
"5.33","745.7757","2.6616"
"5.34","746.8494","2.666767"
"5.35","747.8929","2.6717"
"5.36","748.9141","2.676633"
"5.37","749.9456","2.681567"
"5.38","751.0074","2.686367"
"5.39","752.0723","2.691433"
"5.4","753.1023","2.696567"
"5.41","754.0949","2.701467"
"5.42","755.0828","2.7065"
"5.43","756.1016","2.7115"
"5.44","757.161","2.716467"
"5.45","758.2307","2.721667"
"5.46","759.2916","2.726667"
"5.47","760.351","2.731667"
"5.48","761.4271","2.7368"
"5.49","762.5175","2.7418"
"5.5","763.6014","2.7469"
"5.51","764.6584","2.751967"
"5.52","765.6924","2.756833"
"5.53","766.7128","2.761867"
"5.54","767.7189","2.766733"
"5.55","768.702","2.771567"
"5.56","769.6446","2.776667"
"5.57","770.553","2.781467"
"5.58","771.4486","2.786233"
"5.59","772.3443","2.7913"
"5.6","773.2383","2.796367"
"5.61","774.1133","2.8015"
"5.62","774.986","2.8066"
"5.63","775.9023","2.8115"
"5.64","776.879","2.816633"
"5.65","777.8796","2.8218"
"5.66","778.8618","2.826833"
"5.67","779.8259","2.831967"
"5.68","780.7922","2.836933"
"5.69","781.7729","2.841767"
"5.7","782.7473","2.8467"
"5.71","783.6882","2.851467"
"5.72","784.5815","2.856367"
"5.73","785.4263","2.8615"
"5.74","786.2266","2.8664"
"5.75","787.0046","2.871333"
"5.76","787.7946","2.876433"
"5.77","788.6163","2.881433"
"5.78","789.45","2.8866"
"5.79","790.2773","2.891767"
"5.8","791.1166","2.896733"
"5.81","791.9916","2.901867"
"5.82","792.8967","2.9068"
"5.83","793.8075","2.9117"
"5.84","794.6984","2.9167"
"5.85","795.5599","2.9216"
"5.86","796.3936","2.926567"
"5.87","797.2065","2.9316"
"5.88","798.0092","2.936433"
"5.89","798.8119","2.9414"
"5.9","799.6035","2.9465"
"5.91","800.3704","2.951367"
"5.92","801.1119","2.956433"
"5.93","801.8478","2.9615"
"5.94","802.5972","2.9665"
"5.95","803.3553","2.971733"
"5.96","804.1127","2.976733"
"5.97","804.8717","2.9817"
"5.98","805.6402","2.986767"
"5.99","806.4095","2.991767"
"6","807.1494","2.996833"
"6.01","807.8448","3.0019"
"6.02","808.5124","3.0068"
"6.03","809.1807","3.011733"
"6.04","809.8499","3.016633"
"6.05","810.5048","3.0215"
"6.06","811.1223","3.026567"
"6.07","811.704","3.031533"
"6.08","812.2643","3.036367"
"6.09","812.8341","3.041333"
"6.1","813.4349","3.0463"
"6.11","814.054","3.0514"
"6.12","814.6588","3.0566"
"6.13","815.254","3.061567"
"6.14","815.8819","3.066667"
"6.15","816.5582","3.071767"
"6.16","817.2536","3.0768"
"6.17","817.9219","3.0819"
"6.18","818.5514","3.086833"
"6.19","819.1657","3.091667"
"6.2","819.7721","3.096633"
"6.21","820.3538","3.101433"
"6.22","820.8942","3.106367"
"6.23","821.3893","3.1115"
"6.24","821.8519","3.116367"
"6.25","822.3001","3.121333"
"6.26","822.7571","3.1264"
"6.27","823.2339","3.1314"
"6.28","823.7115","3.1366"
"6.29","824.1796","3.141733"
"6.3","824.6501","3.146733"
"6.31","825.1365","3.151967"
"6.32","825.6404","3.156767"
"6.33","826.1466","3.161633"
"6.34","826.6393","3.1668"
"6.35","827.0939","3.171733"
"6.36","827.4921","3.176633"
"6.37","827.8513","3.1816"
"6.38","828.2042","3.186467"
"6.39","828.5499","3.1915"
"6.4","828.8574","3.196567"
"6.41","829.1221","3.201433"
"6.42","829.37","3.206467"
"6.43","829.6291","3.211467"
"6.44","829.8953","3.216467"
"6.45","830.1497","3.221667"
"6.46","830.396","3.226667"
"6.47","830.6511","3.231667"
"6.48","830.9189","3.236767"
"6.49","831.1979","3.241767"
"6.5","831.4705","3.246833"
"6.51","831.7177","3.251933"
"6.52","831.9378","3.256833"
"6.53","832.1476","3.261833"
"6.54","832.3487","3.2667"
"6.55","832.5291","3.271533"
"6.56","832.6666","3.276633"
"6.57","832.7556","3.281467"
"6.58","832.8192","3.2862"
"6.59","832.8907","3.291267"
"6.6","832.9852","3.296367"
"6.61","833.0751","3.301467"
"6.62","833.1458","3.3066"
"6.63","833.2292","3.311567"
"6.64","833.3675","3.316667"
"6.65","833.5495","3.3218"
"6.66","833.722","3.326833"
"6.67","833.8531","3.3319"
"6.68","833.9484","3.336867"
"6.69","834.0287","3.341667"
"6.7","834.1002","3.346667"
"6.71","834.1519","3.3515"
"6.72","834.1702","3.356433"
"6.73","834.1424","3.361567"
"6.74","834.074","3.366433"
"6.75","833.989","3.371333"
"6.76","833.9047","3.376467"
"6.77","833.8245","3.3815"
"6.78","833.7307","3.3867"
"6.79","833.6258","3.391833"
"6.8","833.5392","3.3968"
"6.81","833.4764","3.401967"
"6.82","833.4096","3.406867"
"6.83","833.3135","3.411733"
"6.84","833.1799","3.416767"
"6.85","833.0107","3.421667"
"6.86","832.8057","3.4266"
"6.87","832.5696","3.431567"
"6.88","832.328","3.4364"
"6.89","832.0848","3.441433"
"6.9","831.8265","3.446467"
"6.91","831.55","3.451367"
"6.92","831.2686","3.456433"
"6.93","830.1329","3.4622"
"6.94","811.8097","3.4675"
"6.95","724.8083","3.472333"
"6.96","527.3994","3.477"
"6.97","280.1927","3.481833"
"6.98","107.0261","3.486867"
"6.99","44.88945","3.491833"
"7","36.45738","3.496833"
"7.01","35.50609","3.501867"
"7.02","34.12088","3.506767"
"7.03","33.8761","3.5118"
"7.04","34.12326","3.5167"
"7.05","33.92776","3.5215"
"7.06","33.29039","3.526533"
"7.07","32.89302","3.531533"
"7.08","33.06627","3.536367"
"7.09","33.17992","3.541333"
"7.1","32.90653","3.546333"
"7.11","32.72613","3.551467"
"7.12","32.89779","3.556633"
"7.13","33.01144","3.5616"
"7.14","32.82626","3.566667"
"7.15","32.69434","3.5718"
"7.16","32.8366","3.5768"
"7.17","32.93912","3.5819"
"7.18","32.78335","3.586867"
"7.19","32.66096","3.591733"
"7.2","32.78971","3.596667"
"7.21","32.90176","3.601533"
"7.22","32.77222","3.606433"
"7.23","32.64825","3.611533"
"7.24","32.7611","3.6164"
"7.25","32.87792","3.621333"
"7.26","32.75712","3.626433"
"7.27","32.6093","3.631467"
"7.28","32.68719","3.636633"
"7.29","32.81673","3.6417"
"7.3","32.73646","3.646667"
"7.31","32.59023","3.651833"
"7.32","32.63633","3.656867"
"7.33","32.75871","3.661733"
"7.34","32.71262","3.6667"
"7.35","32.58149","3.671633"
"7.36","32.60056","3.676567"
"7.37","32.70785","3.6815"
"7.38","32.6856","3.686333"
"7.39","32.57116","3.691367"
"7.4","32.56718","3.6965"
"7.41","32.65381","3.7014"
"7.42","32.65142","3.7064"
"7.43","32.57672","3.711467"
"7.44","32.58784","3.7165"
"7.45","32.65699","3.721633"
"7.46","32.63871","3.726633"
"7.47","32.5648","3.7316"
"7.48","32.56798","3.736767"
"7.49","32.6252","3.741767"
"7.5","32.60533","3.7468"
"7.51","32.54493","3.7519"
"7.52","32.56242","3.756833"
"7.53","32.62361","3.761733"
"7.54","32.61169","3.7666"
"7.55","32.55606","3.771467"
"7.56","32.57434","3.7766"
"7.57","32.63712","3.781533"
"7.58","32.63474","3.786333"
"7.59","32.58784","3.7914"
"7.6","32.59897","3.796467"
"7.61","32.64825","3.801533"
"7.62","32.64109","3.806633"
"7.63","32.59659","3.811567"
"7.64","32.60374","3.8167"
"7.65","32.64507","3.821833"
"7.66","32.6403","3.826867"
"7.67","32.6093","3.8319"
"7.68","32.62281","3.836867"
"7.69","32.66096","3.8417"
"7.7","32.6546","3.846667"
"7.71","32.62043","3.8515"
"7.72","32.6252","3.856467"
"7.73","32.65619","3.861567"
"7.74","32.65142","3.866433"
"7.75","32.62361","3.871367"
"7.76","32.62917","3.876467"
"7.77","32.65142","3.881533"
"7.78","32.64586","3.886667"
"7.79","32.62758","3.891667"
"7.8","32.63394","3.896633"
"7.81","32.65222","3.9018"
"7.82","32.64507","3.906833"
"7.83","32.62043","3.911767"
"7.84","32.61487","3.916833"
"7.85","32.62361","3.921733"
"7.86","32.61646","3.926667"
"7.87","32.60056","3.931567"
"7.88","32.59897","3.936467"
"7.89","32.60772","3.941467"
"7.9","32.60295","3.9465"
"7.91","32.58784","3.9514"
"7.92","32.58944","3.956433"
"7.93","32.60136","3.961433"
"7.94","32.59897","3.9665"
"7.95","32.58705","3.9717"
"7.96","32.58784","3.9767"
"7.97","32.60056","3.981633"
"7.98","32.60295","3.986733"
"7.99","32.59261","3.991767"
"8","32.59023","3.996867"
"8.01","32.59818","4.0019"
"8.02","32.59579","4.0068"
"8.03","32.58149","4.011734"
"8.04","32.58149","4.0166"
"8.05","32.5942","4.021467"
"8.06","32.60056","4.026567"
"8.07","32.59818","4.031567"
"8.08","32.60136","4.0364"
"8.09","32.61169","4.0414"
"8.1","32.61646","4.046367"
"8.11","32.61487","4.051533"
"8.12","32.62122","4.0567"
"8.13","32.62997","4.061634"
"8.14","32.62599","4.066733"
"8.15","32.61805","4.071834"
"8.16","32.62361","4.076833"
"8.17","32.64268","4.081867"
"8.18","32.64825","4.086867"
"8.19","32.64268","4.091767"
"8.2","32.64507","4.096667"
"8.21","32.65381","4.101467"
"8.22","32.64983","4.106367"
"8.23","32.63633","4.111467"
"8.24","32.63474","4.116367"
"8.25","32.64586","4.121334"
"8.26","32.64586","4.126433"
"8.27","32.63235","4.1315"
"8.28","32.62281","4.136633"
"8.29","32.6252","4.141634"
"8.3","32.62758","4.146633"
"8.31","32.6252","4.151834"
"8.32","32.62361","4.156867"
"8.33","32.62917","4.161767"
"8.34","32.62758","4.165667"
"8.35","32.61646","4.166934"