File: degradation_testing/tensile_testing/Resin/Resin_Water/Resin_W_5.csv
"1 _ 1",,
"Time","Force","Stroke"
"sec","N","mm"
"0","0.723203","6.666667E-05"
"0.01","0.7120768","0.001733333"
"0.02","0.714461","0.005933333"
"0.03","0.7772446","0.01076667"
"0.04","1.062552","0.01583333"
"0.05","1.908938","0.02076667"
"0.06","3.739993","0.0258"
"0.07","6.766319","0.03096667"
"0.08","10.75029","0.03613333"
"0.09","15.20554","0.0414"
"0.1","19.77921","0.04646667"
"0.11","24.35446","0.0515"
"0.12","28.90507","0.05673333"
"0.13","33.38099","0.0618"
"0.14","37.73451","0.06673333"
"0.15","41.96405","0.07186667"
"0.16","46.10459","0.0768"
"0.17","50.15929","0.08173333"
"0.18","54.03836","0.08666667"
"0.19","57.47557","0.09143333"
"0.2","60.03777","0.09646667"
"0.21","61.4357","0.1015"
"0.22","61.8275","0.1063333"
"0.23","61.70273","0.1113667"
"0.24","61.55412","0.1164"
"0.25","61.61451","0.1215333"
"0.26","61.76789","0.1267"
"0.27","61.81399","0.1316667"
"0.28","61.75916","0.1367333"
"0.29","61.74167","0.1418333"
"0.3","61.79492","0.1467333"
"0.31","61.86326","0.1517667"
"0.32","61.91015","0.1568"
"0.33","61.93479","0.1617"
"0.34","61.95545","0.1667"
"0.35","61.99121","0.1715333"
"0.36","62.03811","0.1764333"
"0.37","62.08817","0.1815333"
"0.38","62.13268","0.1864667"
"0.39","62.174","0.1914333"
"0.4","62.20738","0.1964667"
"0.41","62.22646","0.2015333"
"0.42","62.23758","0.2066667"
"0.43","62.25348","0.2117"
"0.44","62.2646","0.2166"
"0.45","62.25983","0.2216333"
"0.46","62.24235","0.2267"
"0.47","62.23599","0.2317333"
"0.48","62.24314","0.2368333"
"0.49","62.25109","0.2418333"
"0.5","62.2495","0.2467333"
"0.51","62.25348","0.2517"
"0.52","62.26063","0.2565667"
"0.53","62.26301","0.2615333"
"0.54","62.25109","0.2666333"
"0.55","62.2352","0.2714667"
"0.56","62.22486","0.2763667"
"0.57","62.21771","0.2813667"
"0.58","62.2042","0.2864333"
"0.59","62.18751","0.2916"
"0.6","62.17321","0.2966333"
"0.61","62.16447","0.3016667"
"0.62","62.16208","0.3068"
"0.63","62.16924","0.3118667"
"0.64","62.19546","0.3169333"
"0.65","62.2352","0.3219333"
"0.66","62.26778","0.3268"
"0.67","62.27811","0.3317333"
"0.68","62.27334","0.3366333"
"0.69","62.27334","0.3414667"
"0.7","62.27811","0.3465333"
"0.71","62.28049","0.3515333"
"0.72","62.28049","0.3563667"
"0.73","62.28685","0.3614333"
"0.74","62.29798","0.3664667"
"0.75","62.29639","0.3715333"
"0.76","62.28526","0.3766667"
"0.77","62.28447","0.3816667"
"0.78","62.30275","0.3867667"
"0.79","62.32898","0.3919334"
"0.8","62.34328","0.3967667"
"0.81","62.34805","0.4018333"
"0.82","62.356","0.4068667"
"0.83","62.36792","0.4117333"
"0.84","62.38301","0.4166333"
"0.85","62.40368","0.4214667"
"0.86","62.43865","0.4264"
"0.87","62.48156","0.4315"
"0.88","62.51891","0.4364667"
"0.89","62.54514","0.4414"
"0.9","62.5658","0.4465"
"0.91","62.58567","0.4514667"
"0.92","62.68184","0.4565667"
"0.93","63.14834","0.4616667"
"0.94","64.47395","0.4666333"
"0.95","66.98608","0.4717333"
"0.96","70.49163","0.4768"
"0.97","74.40805","0.4818333"
"0.98","78.19176","0.4869667"
"0.99","81.58048","0.4919333"
"1","84.50906","0.4968333"
"1.01","86.9902","0.5018"
"1.02","89.08272","0.5066"
"1.03","90.89947","0.5115667"
"1.04","92.6288","0.5166"
"1.05","94.53058","0.5213667"
"1.06","96.8496","0.5263"
"1.07","99.74321","0.5313666"
"1.08","103.2583","0.5364"
"1.09","107.3321","0.5415"
"1.1","111.8334","0.5465333"
"1.11","116.6121","0.5515333"
"1.12","121.5076","0.5567333"
"1.13","126.3666","0.5618333"
"1.14","131.1119","0.5668667"
"1.15","135.7579","0.5719"
"1.16","140.3642","0.5767334"
"1.17","144.9521","0.5817"
"1.18","149.5075","0.5866333"
"1.19","154.0081","0.5914333"
"1.2","158.4331","0.5965"
"1.21","162.7628","0.6015334"
"1.22","167.0138","0.6064"
"1.23","171.2545","0.6114333"
"1.24","175.5555","0.6164333"
"1.25","179.9194","0.6215667"
"1.26","184.3007","0.6267334"
"1.27","188.6789","0.6317"
"1.28","193.0706","0.6367334"
"1.29","197.4869","0.6418334"
"1.3","201.9278","0.6467333"
"1.31","206.3719","0.6517"
"1.32","210.7946","0.6567"
"1.33","215.1728","0.6616333"
"1.34","219.5112","0.6666667"
"1.35","223.8274","0.6715"
"1.36","228.1237","0.6763667"
"1.37","232.3699","0.6814667"
"1.38","236.5367","0.6864667"
"1.39","240.6232","0.6914"
"1.4","244.6612","0.6965"
"1.41","248.6968","0.7015"
"1.42","252.7451","0.7066333"
"1.43","256.7887","0.7117"
"1.44","260.8156","0.7166333"
"1.45","264.8417","0.7217"
"1.46","268.8702","0.7267666"
"1.47","272.8804","0.7318"
"1.48","276.8532","0.7369"
"1.49","280.7967","0.7419333"
"1.5","284.7211","0.7468333"
"1.51","288.624","0.7517334"
"1.52","292.484","0.7565333"
"1.53","296.2772","0.7615"
"1.54","299.9759","0.7665667"
"1.55","303.5792","0.7714"
"1.56","307.1221","0.7763667"
"1.57","310.6578","0.7814"
"1.58","314.2087","0.7864333"
"1.59","317.7556","0.7915667"
"1.6","321.2849","0.7965667"
"1.61","324.8175","0.8015667"
"1.62","328.3691","0.8067334"
"1.63","331.9303","0.8118333"
"1.64","335.4748","0.8169333"
"1.65","338.9851","0.8220333"
"1.66","342.4637","0.8268"
"1.67","345.904","0.8316666"
"1.68","349.2816","0.8365667"
"1.69","352.5583","0.8414"
"1.7","355.7086","0.8464667"
"1.71","358.7477","0.8514667"
"1.72","361.7318","0.8563"
"1.73","364.7033","0.8614"
"1.74","367.6804","0.8664667"
"1.75","370.6559","0.8715333"
"1.76","373.6075","0.8766667"
"1.77","376.5376","0.8816667"
"1.78","379.4686","0.8868"
"1.79","382.3964","0.8919333"
"1.8","385.2916","0.8967667"
"1.81","388.124","0.9017333"
"1.82","390.8841","0.9067667"
"1.83","393.5568","0.9116667"
"1.84","396.1062","0.9166334"
"1.85","398.5095","0.9215"
"1.86","400.7729","0.9264"
"1.87","402.9449","0.9315667"
"1.88","405.1073","0.9365333"
"1.89","407.3206","0.9414667"
"1.9","409.5833","0.9465333"
"1.91","411.8411","0.9515"
"1.92","414.0202","0.9565667"
"1.93","416.0778","0.9616667"
"1.94","418.024","0.9666333"
"1.95","419.898","0.9717333"
"1.96","421.7331","0.9767333"
"1.97","423.5411","0.9817333"
"1.98","425.3117","0.9869"
"1.99","427.0347","0.9918333"
"2","428.714","0.9967667"
"2.01","430.3773","1.0017"
"2.02","432.0335","1.006533"
"2.03","433.6627","1.011533"
"2.04","435.2419","1.016567"
"2.05","436.782","1.021367"
"2.06","438.3159","1.026333"
"2.07","439.8624","1.031367"
"2.08","441.4058","1.036433"
"2.09","442.9197","1.041567"
"2.1","444.4106","1.0466"
"2.11","445.9023","1.0516"
"2.12","447.3909","1.056767"
"2.13","448.85","1.0618"
"2.14","450.2646","1.066833"
"2.15","451.6403","1.071867"
"2.16","452.9977","1.076733"
"2.17","454.3336","1.081733"
"2.18","455.6266","1.086667"
"2.19","456.8545","1.091467"
"2.2","458.0013","1.0965"
"2.21","459.067","1.101533"
"2.22","460.0501","1.1064"
"2.23","460.968","1.111467"
"2.24","461.8462","1.1165"
"2.25","462.683","1.1216"
"2.26","463.4444","1.126733"
"2.27","464.1096","1.131733"
"2.28","464.7072","1.136833"
"2.29","465.2683","1.141867"
"2.3","465.8238","1.146733"
"2.31","466.3984","1.1518"
"2.32","466.9992","1.156833"
"2.33","467.6135","1.161767"
"2.34","468.2088","1.166733"
"2.35","468.7579","1.171567"
"2.36","469.2276","1.176433"
"2.37","469.6028","1.1815"
"2.38","469.9214","1.1864"
"2.39","470.2536","1.191333"
"2.4","470.6566","1.1964"
"2.41","471.1612","1.201467"
"2.42","471.7692","1.2066"
"2.43","472.4805","1.211667"
"2.44","473.3094","1.2166"
"2.45","474.2527","1.221667"
"2.46","475.2739","1.226733"
"2.47","476.3412","1.231767"
"2.48","477.465","1.236933"
"2.49","478.6833","1.241867"
"2.5","479.9827","1.246733"
"2.51","481.3019","1.251667"
"2.52","482.587","1.2565"
"2.53","483.8165","1.261533"
"2.54","485.003","1.266633"
"2.55","486.1959","1.271467"
"2.56","487.4555","1.276367"
"2.57","488.8113","1.281367"
"2.58","490.2355","1.2864"
"2.59","491.6732","1.291567"
"2.6","493.1068","1.2966"
"2.61","494.5628","1.3016"
"2.62","496.0601","1.306767"
"2.63","497.5796","1.311833"
"2.64","499.0951","1.3169"
"2.65","500.5956","1.322"
"2.66","502.1","1.326767"
"2.67","503.6163","1.331733"
"2.68","505.139","1.336633"
"2.69","506.653","1.341467"
"2.7","508.1367","1.346533"
"2.71","509.5935","1.351533"
"2.72","511.0423","1.356367"
"2.73","512.4974","1.361433"
"2.74","513.9621","1.366467"
"2.75","515.4292","1.371567"
"2.76","516.897","1.3767"
"2.77","518.3919","1.381733"
"2.78","519.9377","1.3869"
"2.79","521.5287","1.391867"
"2.8","523.1341","1.396733"
"2.81","524.7347","1.4017"
"2.82","526.3225","1.406733"
"2.83","527.8834","1.411667"
"2.84","529.4005","1.416633"
"2.85","530.8795","1.421467"
"2.86","532.337","1.426367"
"2.87","533.7731","1.431467"
"2.88","535.1846","1.436433"
"2.89","536.588","1.441333"
"2.9","538.017","1.4464"
"2.91","539.4777","1.4514"
"2.92","540.9559","1.456567"
"2.93","542.438","1.461667"
"2.94","543.9345","1.466633"
"2.95","545.4437","1.471767"
"2.96","546.9457","1.476833"
"2.97","548.4128","1.481833"
"2.98","549.8282","1.486967"
"2.99","551.1951","1.4919"
"3","552.5192","1.496767"
"3.01","553.8035","1.5017"
"3.02","555.0559","1.506567"
"3.03","556.2791","1.5115"
"3.04","557.4695","1.516467"
"3.05","558.6393","1.5213"
"3.06","559.8163","1.5263"
"3.07","561.0109","1.531433"
"3.08","562.2101","1.536467"
"3.09","563.4006","1.5416"
"3.1","564.6006","1.546567"
"3.11","565.8245","1.551567"
"3.12","567.0532","1.556733"
"3.13","568.2572","1.5618"
"3.14","569.423","1.566867"
"3.15","570.5619","1.571867"
"3.16","571.6968","1.5768"
"3.17","572.8332","1.5818"
"3.18","573.9554","1.586667"
"3.19","575.0474","1.591467"
"3.2","576.0956","1.5965"
"3.21","577.0985","1.601533"
"3.22","578.0681","1.606367"
"3.23","579.0289","1.611367"
"3.24","580.0048","1.6164"
"3.25","580.9983","1.621533"
"3.26","581.9965","1.626767"
"3.27","583.0105","1.631733"
"3.28","584.0691","1.636767"
"3.29","585.1825","1.641767"
"3.3","586.3364","1.646667"
"3.31","587.4968","1.651767"
"3.32","588.6404","1.6568"
"3.33","589.7673","1.661667"
"3.34","590.8966","1.666667"
"3.35","592.0458","1.671533"
"3.36","593.2005","1.676433"
"3.37","594.3322","1.681533"
"3.38","595.4393","1.6865"
"3.39","596.5384","1.691467"
"3.4","597.6526","1.696533"
"3.41","598.797","1.701533"
"3.42","599.9716","1.706633"
"3.43","601.1669","1.7117"
"3.44","602.3844","1.7166"
"3.45","603.6329","1.721667"
"3.46","604.9005","1.726733"
"3.47","606.1586","1.731767"
"3.48","607.3976","1.7369"
"3.49","608.6302","1.741867"
"3.5","609.8683","1.7468"
"3.51","611.1058","1.751733"
"3.52","612.3249","1.7566"
"3.53","613.5114","1.761567"
"3.54","614.659","1.766633"
"3.55","615.778","1.771433"
"3.56","616.9033","1.776333"
"3.57","618.0636","1.781367"
"3.58","619.2565","1.786367"
"3.59","620.4526","1.791633"
"3.6","621.6478","1.7967"
"3.61","622.8788","1.801667"
"3.62","624.1735","1.8068"
"3.63","625.5142","1.811833"
"3.64","626.8605","1.816933"
"3.65","628.1869","1.821967"
"3.66","629.4974","1.826733"
"3.67","630.7936","1.831667"
"3.68","632.0683","1.836567"
"3.69","633.3073","1.8414"
"3.7","634.5097","1.8465"
"3.71","635.6883","1.8515"
"3.72","636.8661","1.856333"
"3.73","638.067","1.861433"
"3.74","639.2964","1.866467"
"3.75","640.5401","1.8715"
"3.76","641.7831","1.876733"
"3.77","643.0324","1.8817"
"3.78","644.3032","1.886833"
"3.79","645.5843","1.891833"
"3.8","646.8487","1.8966"
"3.81","648.0956","1.9017"
"3.82","649.3346","1.9068"
"3.83","650.5632","1.9117"
"3.84","651.7831","1.9167"
"3.85","653.0285","1.9215"
"3.86","654.3","1.9264"
"3.87","655.5565","1.9315"
"3.88","656.7606","1.936467"
"3.89","657.924","1.941433"
"3.9","659.0899","1.946533"
"3.91","660.2836","1.951467"
"3.92","661.4908","1.956533"
"3.93","662.686","1.961667"
"3.94","663.8726","1.9667"
"3.95","665.063","1.971833"
"3.96","666.2687","1.976833"
"3.97","667.4838","1.981833"
"3.98","668.6974","1.986967"
"3.99","669.8934","1.991967"
"4","671.0673","1.996833"
"4.01","672.2283","2.001833"
"4.02","673.3846","2.006633"
"4.03","674.5259","2.011567"
"4.04","675.6234","2.016467"
"4.05","676.6573","2.021267"
"4.06","677.6071","2.026267"
"4.07","678.4836","2.031367"
"4.08","679.3403","2.036433"
"4.09","680.2471","2.041567"
"4.1","681.239","2.046533"
"4.11","682.3071","2.051533"
"4.12","683.3998","2.056733"
"4.13","684.452","2.0618"
"4.14","685.4438","2.066833"
"4.15","686.4135","2.071867"
"4.16","687.41","2.076733"
"4.17","688.436","2.081667"
"4.18","689.4493","2.086533"
"4.19","690.3934","2.091367"
"4.2","691.2542","2.0965"
"4.21","692.0695","2.1015"
"4.22","692.9048","2.106367"
"4.23","693.7989","2.111467"
"4.24","694.7645","2.116533"
"4.25","695.7698","2.121633"
"4.26","696.7934","2.1268"
"4.27","697.8504","2.131767"
"4.28","698.9709","2.136833"
"4.29","700.1416","2.1418"
"4.3","701.3265","2.146667"
"4.31","702.494","2.1517"
"4.32","703.6304","2.156767"
"4.33","704.7415","2.1617"
"4.34","705.8517","2.166667"
"4.35","706.989","2.1715"
"4.36","708.1414","2.176367"
"4.37","709.2595","2.1815"
"4.38","710.295","2.186467"
"4.39","711.2694","2.1914"
"4.4","712.2469","2.1965"
"4.41","713.2713","2.201467"
"4.42","714.3323","2.206633"
"4.43","715.4083","2.2117"
"4.44","716.5106","2.2166"
"4.45","717.6566","2.221767"
"4.46","718.8328","2.2268"
"4.47","719.9987","2.231833"
"4.48","721.1367","2.236933"
"4.49","722.2668","2.2419"
"4.5","723.4073","2.2468"
"4.51","724.5517","2.251733"
"4.52","725.6794","2.256533"
"4.53","726.7658","2.261533"
"4.54","727.8021","2.266633"
"4.55","728.8138","2.271433"
"4.56","729.8525","2.2763"
"4.57","730.95","2.2813"
"4.58","732.0936","2.286333"
"4.59","733.2388","2.2916"
"4.6","734.3824","2.296633"
"4.61","735.5642","2.301667"
"4.62","736.8088","2.3068"
"4.63","738.097","2.3118"
"4.64","739.3885","2.316933"
"4.65","740.6624","2.321967"
"4.66","741.9276","2.326767"
"4.67","743.2008","2.331733"
"4.68","744.4731","2.336667"
"4.69","745.7209","2.3415"
"4.7","746.9296","2.346567"
"4.71","748.1098","2.351533"
"4.72","749.2725","2.356367"
"4.73","750.4233","2.361467"
"4.74","751.5709","2.366467"
"4.75","752.7177","2.3716"
"4.76","753.8629","2.376733"
"4.77","755.0136","2.381733"
"4.78","756.1795","2.386867"
"4.79","757.3605","2.391867"
"4.8","758.5446","2.396633"
"4.81","759.7311","2.4017"
"4.82","760.9145","2.406767"
"4.83","762.0756","2.411667"
"4.84","763.2128","2.416667"
"4.85","764.3549","2.4215"
"4.86","765.516","2.426367"
"4.87","766.6691","2.431533"
"4.88","767.7833","2.436467"
"4.89","768.8554","2.441433"
"4.9","769.9061","2.446533"
"4.91","770.963","2.451467"
"4.92","772.024","2.456567"
"4.93","773.081","2.461667"
"4.94","774.1388","2.466633"
"4.95","775.1989","2.471733"
"4.96","776.2615","2.4768"
"4.97","775.4596","2.4826"
"4.98","751.3992","2.487833"
"4.99","650.5235","2.492333"
"5","447.4966","2.497067"
"5.01","219.6495","2.501867"
"5.02","77.43756","2.506667"
"5.03","34.03664","2.511633"
"5.04","29.60285","2.516567"
"5.05","28.52996","2.521333"
"5.06","27.2282","2.526333"
"5.07","26.89123","2.531467"
"5.08","27.24806","2.536467"
"5.09","27.0613","2.541567"
"5.1","26.32697","2.546633"
"5.11","26.02418","2.551633"
"5.12","26.28883","2.556767"
"5.13","26.38817","2.561833"
"5.14","26.08061","2.5669"
"5.15","25.92882","2.5719"
"5.16","26.14737","2.576767"
"5.17","26.24512","2.5817"
"5.18","26.0218","2.586633"
"5.19","25.90895","2.591433"
"5.2","26.09571","2.596467"
"5.21","26.18631","2.6015"
"5.22","25.99239","2.606333"
"5.23","25.88828","2.6114"
"5.24","26.05915","2.616467"
"5.25","26.15531","2.6216"
"5.26","25.98604","2.626733"
"5.27","25.87318","2.631733"
"5.28","26.01941","2.636733"
"5.29","26.12193","2.641867"
"5.3","25.96855","2.646767"
"5.31","25.84616","2.651767"
"5.32","25.97968","2.656833"
"5.33","26.10048","2.661767"
"5.34","25.97491","2.6667"
"5.35","25.83424","2.671533"
"5.36","25.92007","2.676433"
"5.37","26.03928","2.681433"
"5.38","25.94789","2.6864"
"5.39","25.81517","2.691333"
"5.4","25.88352","2.696433"
"5.41","26.00829","2.701467"
"5.42","25.95027","2.706633"
"5.43","25.8263","2.711667"
"5.44","25.86365","2.7166"
"5.45","25.96617","2.721667"
"5.46","25.92405","2.7267"
"5.47","25.81755","2.731733"
"5.48","25.84378","2.736867"
"5.49","25.9312","2.741833"
"5.5","25.90418","2.746733"
"5.51","25.82073","2.751667"
"5.52","25.83901","2.756533"
"5.53","25.90338","2.761567"
"5.54","25.87","2.766667"
"5.55","25.80086","2.7715"
"5.56","25.83265","2.7764"
"5.57","25.90577","2.7814"
"5.58","25.88352","2.786367"
"5.59","25.81199","2.791533"
"5.6","25.82312","2.7966"
"5.61","25.87636","2.801667"
"5.62","25.85411","2.8068"
"5.63","25.80086","2.811833"
"5.64","25.8255","2.816933"
"5.65","25.8859","2.821967"
"5.66","25.87318","2.826833"
"5.67","25.8255","2.8318"
"5.68","25.84139","2.836667"
"5.69","25.89226","2.841467"
"5.7","25.87954","2.846467"
"5.71","25.83027","2.851467"
"5.72","25.83742","2.856367"
"5.73","25.88431","2.8614"
"5.74","25.88431","2.866467"
"5.75","25.85093","2.871633"
"5.76","25.86524","2.8768"
"5.77","25.91054","2.881767"
"5.78","25.90895","2.886833"
"5.79","25.86842","2.8918"
"5.8","25.86603","2.8967"
"5.81","25.89941","2.9017"
"5.82","25.901","2.906767"
"5.83","25.87477","2.911667"
"5.84","25.88352","2.916667"
"5.85","25.92325","2.921567"
"5.86","25.93438","2.926433"
"5.87","25.91292","2.931533"
"5.88","25.90895","2.9365"
"5.89","25.92564","2.941467"
"5.9","25.91689","2.946533"
"5.91","25.89067","2.9515"
"5.92","25.89067","2.9566"
"5.93","25.91054","2.961733"
"5.94","25.90815","2.966667"
"5.95","25.88431","2.971767"
"5.96","25.88193","2.976833"
"5.97","25.90179","2.981833"
"5.98","25.90179","2.9869"
"5.99","25.87954","2.991767"
"6","25.87318","2.994367"
"6.01","25.8859","2.995"