File: degradation_testing/tensile_testing/Resin/Resin_Water/Resin_W_2.csv
"1 _ 1",,
"Time","Force","Stroke"
"sec","N","mm"
"0","0.3862381","0.0001333333"
"0.01","0.3846487","0.002166667"
"0.02","0.3910065","0.006466667"
"0.03","0.4975001","0.01123333"
"0.04","1.033147","0.01626667"
"0.05","2.557437","0.02133333"
"0.06","5.420049","0.02643333"
"0.07","9.411176","0.03156667"
"0.08","13.98166","0.03656667"
"0.09","18.71189","0.0416"
"0.1","23.40873","0.04676667"
"0.11","27.96809","0.0518"
"0.12","32.31605","0.05686667"
"0.13","36.41685","0.06183333"
"0.14","40.25459","0.06673333"
"0.15","43.80941","0.0717"
"0.16","47.02727","0.07653333"
"0.17","49.76908","0.0814"
"0.18","51.78849","0.0865"
"0.19","52.89237","0.09143333"
"0.2","53.19595","0.09633333"
"0.21","53.11568","0.1014333"
"0.22","53.04575","0.1064333"
"0.23","53.10933","0.1116333"
"0.24","53.26509","0.1167333"
"0.25","53.46775","0.1217"
"0.26","53.65769","0.1268667"
"0.27","53.77531","0.1318333"
"0.28","53.82458","0.1367333"
"0.29","53.84843","0.1418333"
"0.3","53.8667","0.1468"
"0.31","53.88657","0.1517"
"0.32","53.90644","0.1566667"
"0.33","53.91995","0.1614667"
"0.34","53.92631","0.1664333"
"0.35","53.93187","0.1716"
"0.36","53.93982","0.1764667"
"0.37","53.94697","0.1815"
"0.38","53.943","0.1865333"
"0.39","53.92949","0.1915"
"0.4","53.91757","0.1966667"
"0.41","53.91359","0.2017"
"0.42","53.90485","0.2067"
"0.43","53.88498","0.2119"
"0.44","53.85796","0.2169"
"0.45","53.83174","0.2219333"
"0.46","53.81505","0.2270333"
"0.47","53.80869","0.2319"
"0.48","53.80869","0.2368333"
"0.49","53.80471","0.2417333"
"0.5","53.80154","0.2465667"
"0.51","53.81107","0.2516333"
"0.52","53.8373","0.2566"
"0.53","53.86909","0.2614"
"0.54","53.89611","0.2664333"
"0.55","53.91518","0.2714333"
"0.56","53.92472","0.2765333"
"0.57","53.92949","0.2817"
"0.58","53.93426","0.2866667"
"0.59","53.93982","0.2917333"
"0.6","53.93426","0.2969"
"0.61","53.91836","0.3019"
"0.62","53.90406","0.3069333"
"0.63","53.90723","0.3119667"
"0.64","53.9271","0.3168"
"0.65","53.94777","0.3217"
"0.66","53.96048","0.3266"
"0.67","53.96525","0.3314667"
"0.68","53.96445","0.3365667"
"0.69","53.96207","0.3415"
"0.7","53.96048","0.3463667"
"0.71","53.96764","0.3515333"
"0.72","53.98035","0.3566"
"0.73","53.99625","0.3617"
"0.74","54.01452","0.3668667"
"0.75","54.02803","0.3717667"
"0.76","54.02803","0.3768667"
"0.77","54.02009","0.3819"
"0.78","54.01452","0.3868333"
"0.79","54.01373","0.3918333"
"0.8","54.00975","0.3968"
"0.81","54.00499","0.4017"
"0.82","54.00737","0.4067"
"0.83","54.02486","0.4115667"
"0.84","54.04711","0.4165"
"0.85","54.06539","0.4215667"
"0.86","54.0789","0.4264667"
"0.87","54.09877","0.4314667"
"0.88","54.12738","0.4365667"
"0.89","54.15837","0.4416"
"0.9","54.1997","0.4467"
"0.91","54.31493","0.4517334"
"0.92","54.72739","0.4567333"
"0.93","55.9028","0.4618333"
"0.94","58.24487","0.4668334"
"0.95","61.63676","0.4719"
"0.96","65.5063","0.4769333"
"0.97","69.29398","0.4818667"
"0.98","72.72005","0.4868667"
"0.99","75.68518","0.4917667"
"1","78.16633","0.4965667"
"1.01","80.19368","0.5015666"
"1.02","81.86817","0.5066"
"1.03","83.37259","0.5114"
"1.04","85.00497","0.5163667"
"1.05","87.14676","0.5214334"
"1.06","90.02448","0.5265667"
"1.07","93.56022","0.5316667"
"1.08","97.54976","0.5366"
"1.09","101.8739","0.5416"
"1.1","106.4531","0.5467333"
"1.11","111.1325","0.5518"
"1.12","115.7498","0.5569333"
"1.13","120.2551","0.5619333"
"1.14","124.6921","0.5667"
"1.15","129.1132","0.5716333"
"1.16","133.547","0.5765"
"1.17","137.9728","0.5814"
"1.18","142.3423","0.5865334"
"1.19","146.6529","0.5914667"
"1.2","150.9515","0.5963666"
"1.21","155.2669","0.6014667"
"1.22","159.5855","0.6064667"
"1.23","163.8929","0.6116"
"1.24","168.1892","0.6167"
"1.25","172.4847","0.6217"
"1.26","176.781","0.6268667"
"1.27","181.0702","0.6319"
"1.28","185.3418","0.6367334"
"1.29","189.5873","0.6417667"
"1.3","193.8025","0.6467667"
"1.31","197.9717","0.6516333"
"1.32","202.0717","0.6565667"
"1.33","206.0993","0.6614"
"1.34","210.0619","0.6664"
"1.35","213.9624","0.6715333"
"1.36","217.7866","0.6764667"
"1.37","221.5584","0.6815333"
"1.38","225.3318","0.6865667"
"1.39","229.1274","0.6915333"
"1.4","232.9055","0.6966"
"1.41","236.6217","0.7016"
"1.42","240.2822","0.7067"
"1.43","243.9046","0.7118334"
"1.44","247.4761","0.7168"
"1.45","250.9904","0.7218333"
"1.46","254.4657","0.7269667"
"1.47","257.9061","0.7318333"
"1.48","261.2861","0.7367333"
"1.49","264.589","0.7416667"
"1.5","267.8156","0.7464667"
"1.51","270.9381","0.7515666"
"1.52","273.9334","0.7565667"
"1.53","276.8302","0.7613"
"1.54","279.6841","0.7663333"
"1.55","282.5117","0.7714"
"1.56","285.2782","0.7765"
"1.57","287.958","0.7816667"
"1.58","290.579","0.7865667"
"1.59","293.1483","0.7916334"
"1.6","295.6104","0.7968333"
"1.61","297.8913","0.8018667"
"1.62","299.9743","0.8069333"
"1.63","301.9071","0.8119333"
"1.64","303.7596","0.8168"
"1.65","305.6049","0.8217667"
"1.66","307.4932","0.8266333"
"1.67","309.4014","0.8314667"
"1.68","311.2531","0.8365667"
"1.69","313.0046","0.8414667"
"1.7","314.6632","0.8464"
"1.71","316.2622","0.8515334"
"1.72","317.8318","0.8565667"
"1.73","319.372","0.8617"
"1.74","320.8772","0.8668"
"1.75","322.3618","0.8718333"
"1.76","323.8456","0.8769"
"1.77","325.3126","0.8818667"
"1.78","326.7312","0.8867667"
"1.79","328.087","0.8918334"
"1.8","329.3705","0.8968334"
"1.81","330.565","0.9018"
"1.82","331.6665","0.9067333"
"1.83","332.6861","0.9115"
"1.84","333.6263","0.9165"
"1.85","334.456","0.9215667"
"1.86","335.145","0.9264667"
"1.87","335.7061","0.9315333"
"1.88","336.1718","0.9366"
"1.89","336.5668","0.9415667"
"1.9","336.8807","0.9466667"
"1.91","337.0929","0.9517"
"1.92","337.1843","0.9567"
"1.93","337.1469","0.9617667"
"1.94","336.9911","0.9668"
"1.95","336.7495","0.9718333"
"1.96","336.4603","0.9769334"
"1.97","336.1797","0.9818"
"1.98","335.9715","0.9867333"
"1.99","335.869","0.9917"
"2","335.869","0.9965667"
"2.01","335.9405","1.0016"
"2.02","336.0724","1.006633"
"2.03","336.2815","1.011467"
"2.04","336.5866","1.016433"
"2.05","336.9864","1.021433"
"2.06","337.4648","1.026567"
"2.07","338.0028","1.0317"
"2.08","338.5981","1.036667"
"2.09","339.2641","1.041733"
"2.1","340.0071","1.046867"
"2.11","340.8122","1.0519"
"2.12","341.6522","1.056967"
"2.13","342.5177","1.061967"
"2.14","343.407","1.0668"
"2.15","344.2955","1.071733"
"2.16","345.1562","1.076633"
"2.17","345.9636","1.081467"
"2.18","346.7059","1.086533"
"2.19","347.3997","1.091467"
"2.2","348.0776","1.0964"
"2.21","348.7857","1.1015"
"2.22","349.5685","1.106567"
"2.23","350.4777","1.111667"
"2.24","351.5569","1.116767"
"2.25","352.8349","1.121767"
"2.26","354.2622","1.126867"
"2.27","355.7269","1.1319"
"2.28","357.1351","1.1368"
"2.29","358.46","1.141767"
"2.3","359.7101","1.146733"
"2.31","360.8855","1.151633"
"2.32","361.9925","1.156633"
"2.33","363.0543","1.161467"
"2.34","364.0866","1.166433"
"2.35","365.0935","1.171533"
"2.36","366.0822","1.176433"
"2.37","367.0669","1.1814"
"2.38","368.0611","1.186433"
"2.39","369.0688","1.191433"
"2.4","370.0765","1.196567"
"2.41","371.0802","1.201667"
"2.42","372.1015","1.206667"
"2.43","373.1704","1.2118"
"2.44","374.3013","1.216833"
"2.45","375.4822","1.221833"
"2.46","376.691","1.2269"
"2.47","377.9221","1.2318"
"2.48","379.1793","1.2368"
"2.49","380.4684","1.2417"
"2.5","381.79","1.246533"
"2.51","383.1434","1.251533"
"2.52","384.5366","1.256467"
"2.53","385.9806","1.261267"
"2.54","387.4906","1.266367"
"2.55","389.0713","1.271433"
"2.56","390.7029","1.2765"
"2.57","392.3678","1.281633"
"2.58","394.0741","1.286567"
"2.59","395.8265","1.291633"
"2.6","397.6011","1.2968"
"2.61","399.3734","1.3018"
"2.62","401.1385","1.3069"
"2.63","402.9147","1.311933"
"2.64","404.714","1.316767"
"2.65","406.5291","1.321733"
"2.66","408.3355","1.326567"
"2.67","410.107","1.331433"
"2.68","411.826","1.336567"
"2.69","413.5045","1.341467"
"2.7","415.1686","1.346367"
"2.71","416.8447","1.351467"
"2.72","418.5438","1.3565"
"2.73","420.2581","1.361667"
"2.74","421.9802","1.3668"
"2.75","423.7262","1.3718"
"2.76","425.5128","1.376867"
"2.77","427.3248","1.3818"
"2.78","429.1344","1.3867"
"2.79","430.9201","1.391833"
"2.8","432.6749","1.3968"
"2.81","434.4026","1.401667"
"2.82","436.1169","1.406633"
"2.83","437.8271","1.411467"
"2.84","439.5191","1.416433"
"2.85","441.1674","1.421567"
"2.86","442.7703","1.4265"
"2.87","444.3574","1.431533"
"2.88","445.9643","1.4366"
"2.89","447.6007","1.4416"
"2.9","449.249","1.4467"
"2.91","450.9004","1.451733"
"2.92","452.5574","1.4567"
"2.93","454.2239","1.4618"
"2.94","455.8849","1.466867"
"2.95","457.5189","1.4719"
"2.96","459.1107","1.476967"
"2.97","460.6334","1.481833"
"2.98","462.0584","1.4868"
"2.99","463.3784","1.491733"
"3","464.627","1.496567"
"3.01","465.8349","1.501633"
"3.02","467.0239","1.506667"
"3.03","468.2183","1.511467"
"3.04","469.4438","1.516367"
"3.05","470.7201","1.521367"
"3.06","472.0283","1.526467"
"3.07","473.326","1.5317"
"3.08","474.6095","1.5367"
"3.09","475.9256","1.541767"
"3.1","477.3076","1.546867"
"3.11","478.7278","1.551867"
"3.12","480.1297","1.557"
"3.13","481.4895","1.561967"
"3.14","482.8278","1.566767"
"3.15","484.1542","1.571767"
"3.16","485.4489","1.5766"
"3.17","486.6775","1.5815"
"3.18","487.8251","1.586567"
"3.19","488.9091","1.5915"
"3.2","489.9677","1.596433"
"3.21","491.027","1.6015"
"3.22","492.1031","1.6065"
"3.23","493.1784","1.611633"
"3.24","494.2489","1.616733"
"3.25","495.3361","1.621733"
"3.26","496.4534","1.6269"
"3.27","497.5851","1.631833"
"3.28","498.7137","1.636633"
"3.29","499.8398","1.641767"
"3.3","500.9627","1.6468"
"3.31","502.0618","1.651733"
"3.32","503.1435","1.6567"
"3.33","504.241","1.6615"
"3.34","505.3504","1.666467"
"3.35","506.4257","1.671633"
"3.36","507.4445","1.6765"
"3.37","508.43","1.681467"
"3.38","509.4186","1.686567"
"3.39","510.4176","1.691567"
"3.4","511.4078","1.696633"
"3.41","512.3814","1.701733"
"3.42","513.3502","1.7067"
"3.43","514.319","1.711833"
"3.44","515.2719","1.716833"
"3.45","516.2072","1.721833"
"3.46","517.1235","1.726967"
"3.47","518.0152","1.731867"
"3.48","518.8783","1.736867"
"3.49","519.7167","1.741833"
"3.5","520.5377","1.746633"
"3.51","521.3396","1.751533"
"3.52","522.1129","1.756467"
"3.53","522.8551","1.761267"
"3.54","523.5775","1.766333"
"3.55","524.2975","1.771433"
"3.56","525.0263","1.7765"
"3.57","525.7781","1.781633"
"3.58","526.5697","1.786567"
"3.59","527.3962","1.791633"
"3.6","528.2394","1.796767"
"3.61","529.0826","1.801767"
"3.62","529.9211","1.806867"
"3.63","530.7571","1.811867"
"3.64","531.5988","1.8167"
"3.65","532.4491","1.821667"
"3.66","533.3026","1.8265"
"3.67","534.1434","1.831367"
"3.68","534.9525","1.8365"
"3.69","535.7321","1.841467"
"3.7","536.5101","1.8464"
"3.71","537.32","1.851533"
"3.72","538.1846","1.856567"
"3.73","539.0994","1.861667"
"3.74","540.0522","1.8668"
"3.75","541.0409","1.8718"
"3.76","542.0701","1.876833"
"3.77","543.1342","1.881767"
"3.78","544.2246","1.886667"
"3.79","545.3181","1.891767"
"3.8","546.3934","1.896767"
"3.81","547.4631","1.901667"
"3.82","548.5519","1.906633"
"3.83","549.6661","1.911467"
"3.84","550.7834","1.916467"
"3.85","551.8778","1.921567"
"3.86","552.9388","1.926433"
"3.87","553.9838","1.9315"
"3.88","555.0392","1.936533"
"3.89","556.1248","1.941567"
"3.9","557.2287","1.946733"
"3.91","558.3493","1.951733"
"3.92","559.5024","1.956667"
"3.93","560.6953","1.9618"
"3.94","561.8986","1.966833"
"3.95","563.0803","1.9719"
"3.96","564.2501","1.977"
"3.97","565.4391","1.981867"
"3.98","566.6542","1.9868"
"3.99","567.8717","1.991667"
"4","569.0734","1.996533"
"4.01","570.2416","2.001633"
"4.02","571.3757","2.006667"
"4.03","572.4971","2.011433"
"4.04","573.6589","2.016367"
"4.05","574.8892","2.021367"
"4.06","576.1504","2.026467"
"4.07","577.3926","2.0317"
"4.08","578.6348","2.036667"
"4.09","579.9269","2.0417"
"4.1","581.2788","2.046833"
"4.11","582.6513","2.051867"
"4.12","584.0023","2.057"
"4.13","585.3287","2.061933"
"4.14","586.6512","2.066767"
"4.15","587.9728","2.071733"
"4.16","589.2754","2.076633"
"4.17","590.5461","2.0815"
"4.18","591.7827","2.0866"
"4.19","592.9987","2.091533"
"4.2","594.2114","2.096433"
"4.21","595.4345","2.101567"
"4.22","596.6807","2.1066"
"4.23","597.9411","2.111733"
"4.24","599.2095","2.116833"
"4.25","600.493","2.1218"
"4.26","601.7955","2.126967"
"4.27","603.1044","2.131867"
"4.28","604.4014","2.1367"
"4.29","605.6746","2.1418"
"4.3","606.9207","2.1468"
"4.31","608.1398","2.151733"
"4.32","609.3526","2.156667"
"4.33","610.582","2.161433"
"4.34","611.817","2.166433"
"4.35","613.0115","2.171567"
"4.36","614.1536","2.176467"
"4.37","615.2765","2.181467"
"4.38","616.4249","2.186567"
"4.39","617.6169","2.191533"
"4.4","618.8281","2.196667"
"4.41","620.0433","2.2017"
"4.42","621.2695","2.2067"
"4.43","622.5109","2.2118"
"4.44","623.7523","2.216767"
"4.45","624.9769","2.221833"
"4.46","626.1865","2.227"
"4.47","627.3977","2.2319"
"4.48","628.624","2.2368"
"4.49","629.8629","2.241767"
"4.5","631.0932","2.246567"
"4.51","632.2948","2.2516"
"4.52","633.4567","2.256467"
"4.53","634.5892","2.261233"
"4.54","635.7018","2.266333"
"4.55","636.7882","2.271433"
"4.56","637.8428","2.2765"
"4.57","638.8879","2.281667"
"4.58","639.9695","2.286667"
"4.59","641.1083","2.291667"
"4.6","642.2758","2.296833"
"4.61","643.4385","2.301867"
"4.62","644.5876","2.306967"
"4.63","645.7313","2.311933"
"4.64","646.8757","2.3168"
"4.65","648.0066","2.321767"
"4.66","649.1097","2.326567"
"4.67","650.177","2.3314"
"4.68","651.207","2.3365"
"4.69","652.1972","2.3415"
"4.7","653.158","2.3464"
"4.71","654.13","2.351467"
"4.72","655.1576","2.356533"
"4.73","656.2384","2.3617"
"4.74","657.3447","2.366833"
"4.75","658.4731","2.371733"
"4.76","659.6295","2.3768"
"4.77","660.7961","2.3818"
"4.78","661.9478","2.3867"
"4.79","663.0699","2.3918"
"4.8","664.169","2.396767"
"4.81","665.2339","2.401667"
"4.82","666.244","2.406633"
"4.83","667.1985","2.411467"
"4.84","668.0989","2.416433"
"4.85","668.9421","2.4215"
"4.86","669.7464","2.4264"
"4.87","670.5491","2.4314"
"4.88","671.3804","2.436433"
"4.89","672.2371","2.441433"
"4.9","673.1025","2.446667"
"4.91","673.9823","2.4517"
"4.92","674.8986","2.4566"
"4.93","675.8738","2.4617"
"4.94","676.8926","2.4667"
"4.95","677.9122","2.4718"
"4.96","678.8961","2.476933"
"4.97","679.8641","2.4818"
"4.98","680.8559","2.4867"
"4.99","681.8748","2.491633"
"5","682.8864","2.496567"
"5.01","683.8616","2.501667"
"5.02","684.8113","2.506667"
"5.03","685.7721","2.511433"
"5.04","686.7663","2.516367"
"5.05","687.7844","2.521333"
"5.06","688.7944","2.5264"
"5.07","689.787","2.5316"
"5.08","690.79","2.536667"
"5.09","691.8383","2.541733"
"5.1","692.9485","2.546867"
"5.11","694.0921","2.551833"
"5.12","695.2222","2.557"
"5.13","696.3118","2.561967"
"5.14","697.3648","2.566767"
"5.15","698.39","2.571733"
"5.16","699.3771","2.5766"
"5.17","700.3069","2.581533"
"5.18","701.1874","2.586633"
"5.19","702.0505","2.591533"
"5.2","702.9303","2.596467"
"5.21","703.8403","2.601567"
"5.22","704.7772","2.606567"
"5.23","705.7198","2.6117"
"5.24","706.6624","2.616867"
"5.25","707.6287","2.621833"
"5.26","708.6364","2.626967"
"5.27","709.6799","2.631833"
"5.28","710.7401","2.636633"
"5.29","711.7971","2.641733"
"5.3","712.8366","2.6467"
"5.31","713.857","2.651633"
"5.32","714.8719","2.656633"
"5.33","715.9098","2.6615"
"5.34","716.97","2.666467"
"5.35","718.0309","2.6716"
"5.36","719.0784","2.676467"
"5.37","720.1147","2.6815"
"5.38","721.1606","2.686567"
"5.39","722.2216","2.691567"
"5.4","723.2881","2.696767"
"5.41","724.3594","2.701767"
"5.42","725.4481","2.706733"
"5.43","726.5647","2.711867"
"5.44","727.6877","2.716833"
"5.45","728.7892","2.721867"
"5.46","729.8573","2.726967"
"5.47","730.9008","2.731867"
"5.48","731.9236","2.736867"
"5.49","732.9377","2.741833"
"5.5","733.9454","2.746667"
"5.51","734.9404","2.751667"
"5.52","735.9124","2.756567"
"5.53","736.8684","2.761267"
"5.54","737.8157","2.766367"
"5.55","738.7519","2.771467"
"5.56","739.6714","2.776533"
"5.57","740.5917","2.7817"
"5.58","741.5509","2.786633"
"5.59","742.5721","2.791633"
"5.6","743.6331","2.796833"
"5.61","744.6989","2.801867"
"5.62","745.7479","2.8069"
"5.63","746.781","2.811867"
"5.64","747.8237","2.816767"
"5.65","748.8719","2.821733"
"5.66","749.9067","2.826633"
"5.67","750.9065","2.831467"
"5.68","751.8633","2.836633"
"5.69","752.7916","2.841533"
"5.7","753.7111","2.846367"
"5.71","754.6345","2.851467"
"5.72","755.566","2.8565"
"5.73","756.4871","2.861667"
"5.74","757.4018","2.8668"
"5.75","758.3491","2.8718"
"5.76","759.3592","2.876867"
"5.77","760.4202","2.8819"
"5.78","761.4986","2.886767"
"5.79","762.5762","2.891767"
"5.8","763.6476","2.8967"
"5.81","764.7021","2.901567"
"5.82","765.7242","2.906567"
"5.83","766.72","2.911467"
"5.84","767.7031","2.916433"
"5.85","768.6774","2.921567"
"5.86","769.6422","2.926467"
"5.87","770.5943","2.9315"
"5.88","771.5352","2.936533"
"5.89","772.4611","2.941533"
"5.9","773.3607","2.9467"
"5.91","774.231","2.951767"
"5.92","775.102","2.9567"
"5.93","775.9937","2.961767"
"5.94","776.8949","2.966767"
"5.95","777.7707","2.971833"
"5.96","778.6004","2.976933"
"5.97","779.3959","2.981833"
"5.98","780.1827","2.986733"
"5.99","780.9703","2.991667"
"6","781.7443","2.9965"
"6.01","782.4842","3.0016"
"6.02","783.186","3.0066"
"6.03","783.879","3.011433"
"6.04","784.5998","3.0164"
"6.05","785.3604","3.0213"
"6.06","786.1312","3.0264"
"6.07","786.8823","3.031633"
"6.08","787.6158","3.036633"
"6.09","788.3644","3.0417"
"6.1","789.1567","3.0468"
"6.11","789.9793","3.051833"
"6.12","790.7844","3.056967"
"6.13","791.5505","3.0619"
"6.14","792.2911","3.066667"
"6.15","793.0215","3.071667"
"6.16","793.7352","3.076567"
"6.17","794.4115","3.081467"
"6.18","795.0465","3.086567"
"6.19","795.6577","3.091467"
"6.2","796.2664","3.096367"
"6.21","796.8815","3.101467"
"6.22","797.4966","3.1065"
"6.23","798.0983","3.111667"
"6.24","798.6911","3.1168"
"6.25","799.3038","3.121767"
"6.26","799.9531","3.127"
"6.27","800.6239","3.131867"
"6.28","801.2914","3.1367"
"6.29","801.9312","3.1418"
"6.3","802.5265","3.1468"
"6.31","803.0701","3.151667"
"6.32","803.5755","3.156667"
"6.33","804.073","3.161533"
"6.34","804.5641","3.166533"
"6.35","805.0227","3.171633"
"6.36","805.4439","3.176467"
"6.37","805.8437","3.181533"
"6.38","806.2426","3.1866"
"6.39","806.6503","3.191533"
"6.4","807.0564","3.196667"
"6.41","807.4617","3.201667"
"6.42","807.8702","3.206667"
"6.43","808.2843","3.2118"
"6.44","808.6927","3.216867"
"6.45","809.0886","3.2219"
"6.46","809.4708","3.227"
"6.47","809.8499","3.231933"
"6.48","810.229","3.236867"
"6.49","810.585","3.241767"
"6.5","810.8989","3.246567"
"6.51","811.1691","3.251667"
"6.52","811.4012","3.256567"
"6.53","811.6086","3.261267"
"6.54","811.8097","3.266333"
"6.55","812.0211","3.271433"
"6.56","812.2285","3.2765"
"6.57","812.42","3.2817"
"6.58","812.6291","3.286667"
"6.59","812.8969","3.291667"
"6.6","813.2108","3.296833"
"6.61","813.5152","3.301833"
"6.62","813.7775","3.3069"
"6.63","814.0024","3.311867"
"6.64","814.213","3.316733"
"6.65","814.4132","3.321733"
"6.66","814.5873","3.326567"
"6.67","814.7311","3.331467"
"6.68","814.8368","3.3366"
"6.69","814.9059","3.341533"
"6.7","814.9457","3.346433"
"6.71","814.9775","3.351533"
"6.72","815.022","3.356567"
"6.73","815.0601","3.361733"
"6.74","815.0792","3.366833"
"6.75","815.0991","3.3718"
"6.76","815.1404","3.376967"
"6.77","814.6024","3.382633"
"6.78","799.4199","3.387833"
"6.79","720.7728","3.392533"
"6.8","532.0319","3.397167"
"6.81","284.1226","3.401833"
"6.82","101.5353","3.4068"
"6.83","31.75338","3.411633"
"6.84","21.68337","3.416567"
"6.85","21.02772","3.4216"
"6.86","19.44304","3.426467"
"6.87","18.92169","3.431467"
"6.88","19.10448","3.4365"
"6.89","18.9511","3.4415"
"6.9","18.28432","3.446633"
"6.91","17.82497","3.451667"
"6.92","18.03875","3.456667"
"6.93","18.26207","3.461767"
"6.94","17.99107","3.466833"
"6.95","17.72245","3.471867"
"6.96","17.89331","3.476967"
"6.97","18.08246","3.4819"
"6.98","17.89093","3.4868"
"6.99","17.6843","3.491667"
"7","17.83053","3.4965"
"7.01","17.99901","3.501567"
"7.02","17.83609","3.506633"
"7.03","17.65013","3.511467"
"7.04","17.78205","3.516367"
"7.05","17.95133","3.521367"
"7.06","17.80272","3.526467"
"7.07","17.60006","3.531633"
"7.08","17.70894","3.536633"
"7.09","17.90682","3.541667"
"7.1","17.81384","3.5468"
"7.11","17.60562","3.551833"
"7.12","17.65887","3.556967"
"7.13","17.84245","3.562"
"7.14","17.79159","3.566767"
"7.15","17.59768","3.5717"
"7.16","17.6088","3.576567"
"7.17","17.76854","3.581467"
"7.18","17.75821","3.586567"
"7.19","17.60562","3.5915"
"7.2","17.60006","3.5964"
"7.21","17.73357","3.6015"
"7.22","17.73278","3.606533"
"7.23","17.59768","3.611633"
"7.24","17.57781","3.6167"
"7.25","17.68827","3.621667"
"7.26","17.6994","3.626833"
"7.27","17.5945","3.631867"
"7.28","17.58099","3.636767"
"7.29","17.67476","3.641767"
"7.3","17.68033","3.646733"
"7.31","17.58655","3.651667"
"7.32","17.57463","3.6566"
"7.33","17.65569","3.6614"
"7.34","17.66205","3.666433"
"7.35","17.58178","3.671567"
"7.36","17.57542","3.676433"
"7.37","17.65569","3.681433"
"7.38","17.66602","3.686533"
"7.39","17.59211","3.6916"
"7.4","17.58178","3.6967"
"7.41","17.65013","3.701733"
"7.42","17.65887","3.706667"
"7.43","17.59211","3.7118"
"7.44","17.58417","3.7168"
"7.45","17.65331","3.721867"
"7.46","17.67556","3.726933"
"7.47","17.62629","3.731833"
"7.48","17.61516","3.7368"
"7.49","17.67238","3.7417"
"7.5","17.69066","3.746533"
"7.51","17.63662","3.7516"
"7.52","17.61516","3.756633"
"7.53","17.6692","3.761433"
"7.54","17.70655","3.7665"
"7.55","17.67317","3.771533"
"7.56","17.64377","3.7766"
"7.57","17.66602","3.781767"
"7.58","17.68033","3.786667"
"7.59","17.65013","3.7917"
"7.6","17.63264","3.796867"
"7.61","17.65728","3.8019"
"7.62","17.67794","3.8069"
"7.63","17.66125","3.8119"
"7.64","17.64615","3.816733"
"7.65","17.66205","3.8217"
"7.66","17.67079","3.8266"
"7.67","17.64774","3.8315"
"7.68","17.63026","3.8366"
"7.69","17.64456","3.8415"
"7.7","17.65728","3.8464"
"7.71","17.64139","3.851533"
"7.72","17.62549","3.8566"
"7.73","17.63344","3.861733"
"7.74","17.64218","3.8667"
"7.75","17.62629","3.871667"
"7.76","17.61278","3.8768"
"7.77","17.62152","3.8819"
"7.78","17.63105","3.886833"
"7.79","17.62152","3.891867"
"7.8","17.61675","3.8968"
"7.81","17.63105","3.901667"
"7.82","17.63741","3.9067"
"7.83","17.61913","3.911567"
"7.84","17.61039","3.916533"
"7.85","17.6239","3.9216"
"7.86","17.63026","3.926467"
"7.87","17.61436","3.9314"
"7.88","17.60324","3.936467"
"7.89","17.61436","3.941533"
"7.9","17.63264","3.946667"
"7.91","17.63662","3.951733"
"7.92","17.63741","3.9567"
"7.93","17.64615","3.9618"
"7.94","17.64774","3.966833"
"7.95","17.63503","3.971867"
"7.96","17.62867","3.976967"
"7.97","17.6398","3.981867"
"7.98","17.65013","3.9868"
"7.99","17.64854","3.9917"
"8","17.65092","3.996533"
"8.01","17.65887","4.0016"
"8.02","17.65887","4.006667"
"8.03","17.65013","4.0115"
"8.04","17.65251","4.016467"
"8.05","17.67238","4.021467"
"8.06","17.68827","4.0266"
"8.07","17.68669","4.031734"
"8.08","17.68589","4.036667"
"8.09","17.68907","4.041667"
"8.1","17.68669","4.046834"
"8.11","17.67476","4.051867"
"8.12","17.6692","4.056967"
"8.13","17.67476","4.061934"
"8.14","17.67556","4.0668"
"8.15","17.6692","4.071733"
"8.16","17.66682","4.076567"
"8.17","17.6692","4.0814"
"8.18","17.66682","4.0865"
"8.19","17.65728","4.091467"
"8.2","17.6549","4.096367"
"8.21","17.66443","4.101467"
"8.22","17.67079","4.1065"
"8.23","17.66443","4.111633"
"8.24","17.65251","4.116767"
"8.25","17.64615","4.121667"
"8.26","17.64615","4.126833"
"8.27","17.64615","4.131933"
"8.28","17.64456","4.1368"
"8.29","17.64615","4.141767"
"8.3","17.64615","4.1467"
"8.31","17.64139","4.1516"
"8.32","17.63662","4.156567"
"8.33","17.63662","4.161467"
"8.34","17.63662","4.1664"
"8.35","17.63105","4.171534"
"8.36","17.63026","4.176434"
"8.37","17.639","4.181467"
"8.38","17.64615","4.1865"
"8.39","17.64615","4.1915"
"8.4","17.64218","4.196633"
"8.41","17.64377","4.201667"
"8.42","17.64139","4.206634"
"8.43","17.639","4.2118"
"8.44","17.64456","4.2168"
"8.45","17.6549","4.221833"
"8.46","17.65331","4.226933"
"8.47","17.64377","4.231867"
"8.48","17.639","4.2368"
"8.49","17.64456","4.2417"
"8.5","17.6549","4.246533"
"8.51","17.66125","4.2516"
"8.52","17.66682","4.2566"
"8.53","17.67476","4.261333"
"8.54","17.67794","4.266366"
"8.55","17.67715","4.2714"
"8.56","17.67317","4.276534"
"8.57","17.67238","4.281667"
"8.58","17.6692","4.286533"
"8.59","17.66443","4.289867"
"8.6","17.66364","4.291"